Index,L5_Acceleration X(g),L5_Acceleration Y(g),L5_Acceleration Z(g),L5_Angular velocity X(°/s),L5_Angular velocity Y(°/s),L5_Angular velocity Z(°/s),L5_Angle X(°),L5_Angle Y(°),L5_Angle Z(°),L5_Magnetic field X(ʯt),L5_Magnetic field Y(ʯt),L5_Magnetic field Z(ʯt),L5_Temperature(℃),L5_Quaternions 0(),L5_Quaternions 1(),L5_Quaternions 2(),L5_Quaternions 3(),L5___orig_idx,T4_Acceleration X(g),T4_Acceleration Y(g),T4_Acceleration Z(g),T4_Angular velocity X(°/s),T4_Angular velocity Y(°/s),T4_Angular velocity Z(°/s),T4_Angle X(°),T4_Angle Y(°),T4_Angle Z(°),T4_Magnetic field X(ʯt),T4_Magnetic field Y(ʯt),T4_Magnetic field Z(ʯt),T4_Temperature(℃),T4_Quaternions 0(),T4_Quaternions 1(),T4_Quaternions 2(),T4_Quaternions 3(),T4___orig_idx,C7_Acceleration X(g),C7_Acceleration Y(g),C7_Acceleration Z(g),C7_Angular velocity X(°/s),C7_Angular velocity Y(°/s),C7_Angular velocity Z(°/s),C7_Angle X(°),C7_Angle Y(°),C7_Angle Z(°),C7_Magnetic field X(ʯt),C7_Magnetic field Y(ʯt),C7_Magnetic field Z(ʯt),C7_Temperature(℃),C7_Quaternions 0(),C7_Quaternions 1(),C7_Quaternions 2(),C7_Quaternions 3(),C7___orig_idx,T12_Acceleration X(g),T12_Acceleration Y(g),T12_Acceleration Z(g),T12_Angular velocity X(°/s),T12_Angular velocity Y(°/s),T12_Angular velocity Z(°/s),T12_Angle X(°),T12_Angle Y(°),T12_Angle Z(°),T12_Magnetic field X(ʯt),T12_Magnetic field Y(ʯt),T12_Magnetic field Z(ʯt),T12_Temperature(℃),T12_Quaternions 0(),T12_Quaternions 1(),T12_Quaternions 2(),T12_Quaternions 3(),T12___orig_idx
0,1.005,-0.129,-0.127,0.0,0.0,0.0,-134.681,-79.761,-85.957,-25.093,-5.94,-4.433,30.34,0.18692,0.68658,-0.30185,0.63437,2,0.966,0.098,0.245,0.305,-0.122,0.366,21.489,-74.625,-148.359,-26.913,-13.973,8.573,28.42,0.32144,-0.53275,-0.30423,-0.72125,0,0.91,0.021,0.396,0.0,0.0,0.366,3.021,-66.561,148.008,-24.16,-11.807,-17.713,31.11,0.21469,0.53342,-0.12921,0.8078,4,0.885,0.055,-0.433,0.183,0.0,0.0,172.744,-63.748,-8.591,-26.787,-11.733,10.367,32.05,-0.09351,-0.84253,0.09726,-0.52139,6
1,1.005,-0.13,-0.128,0.0,0.122,0.0,-134.67,-79.761,-85.974,-25.093,-5.94,-4.433,30.34,0.18692,0.68658,-0.30185,0.63437,3,0.966,0.098,0.247,0.244,0.0,0.305,21.478,-74.63,-148.365,-26.913,-13.973,8.573,28.42,0.32144,-0.53275,-0.30423,-0.72125,1,0.909,0.019,0.395,0.0,-0.122,0.488,3.005,-66.561,148.008,-24.16,-11.807,-17.713,31.11,0.21469,0.53342,-0.12921,0.8078,5,0.885,0.054,-0.433,0.122,0.122,0.0,172.749,-63.748,-8.586,-26.787,-11.733,10.367,32.05,-0.09351,-0.84253,0.09726,-0.52139,7
2,1.005,-0.13,-0.127,0.0,0.122,0.0,-134.659,-79.766,-85.99,-25.093,-5.94,-4.433,30.34,0.18692,0.68658,-0.30185,0.63437,10,0.965,0.097,0.246,0.122,-0.061,0.244,21.467,-74.63,-148.37,-26.913,-13.973,8.573,28.42,0.32144,-0.53275,-0.30423,-0.72125,8,0.912,0.018,0.392,0.0,0.122,0.061,2.988,-66.561,148.008,-24.16,-11.807,-17.713,31.11,0.21469,0.53342,-0.12921,0.8078,18,0.885,0.055,-0.434,0.122,0.122,0.0,172.749,-63.754,-8.586,-26.787,-11.733,10.367,32.05,-0.09296,-0.84256,0.09671,-0.52151,14
3,1.005,-0.129,-0.126,0.0,0.061,0.0,-134.654,-79.766,-86.001,-25.093,-5.94,-4.433,30.34,0.18692,0.68658,-0.30185,0.63437,11,0.968,0.097,0.244,0.244,0.122,0.0,21.462,-74.636,-148.376,-26.913,-13.973,8.573,28.42,0.32144,-0.53275,-0.30423,-0.72125,9,0.911,0.022,0.396,0.0,0.366,-0.427,2.999,-66.555,148.002,-24.16,-11.807,-17.713,31.11,0.21469,0.53342,-0.12921,0.8078,19,0.885,0.055,-0.434,0.122,0.122,0.0,172.755,-63.754,-8.58,-26.787,-11.733,10.367,32.05,-0.09296,-0.84256,0.09671,-0.52151,15
4,1.006,-0.129,-0.127,0.0,0.122,0.0,-134.643,-79.766,-86.012,-25.093,-5.94,-4.433,30.34,0.18692,0.68658,-0.30185,0.63437,16,0.967,0.1,0.246,0.488,0.122,0.0,21.467,-74.63,-148.387,-26.9,-13.747,7.893,28.42,0.32144,-0.53275,-0.30423,-0.72125,12,0.912,0.024,0.397,0.122,0.61,-0.122,3.01,-66.544,147.986,-24.16,-11.807,-17.713,31.11,0.21469,0.53342,-0.12921,0.8078,26,0.885,0.056,-0.433,0.0,0.122,0.0,172.749,-63.754,-8.575,-26.787,-11.733,10.367,32.05,-0.09296,-0.84256,0.09671,-0.52151,22
5,1.006,-0.129,-0.127,0.0,0.0,0.0,-134.637,-79.766,-86.017,-25.093,-5.94,-4.433,30.34,0.18692,0.68658,-0.30185,0.63437,17,0.968,0.099,0.247,0.549,0.0,0.122,21.478,-74.63,-148.381,-26.9,-13.747,7.893,28.42,0.32144,-0.53275,-0.30423,-0.72125,13,0.91,0.021,0.398,0.122,0.244,0.061,3.016,-66.533,147.986,-24.16,-11.807,-17.713,31.11,0.21469,0.53342,-0.12921,0.8078,27,0.885,0.055,-0.433,0.061,0.122,0.0,172.755,-63.759,-8.575,-26.787,-11.733,10.367,32.05,-0.09296,-0.84256,0.09671,-0.52151,23
6,1.005,-0.129,-0.128,-0.061,0.0,0.0,-134.637,-79.766,-86.028,-25.093,-5.94,-4.433,30.34,0.18692,0.68658,-0.30185,0.63437,24,0.965,0.1,0.247,0.488,-0.122,0.122,21.484,-74.636,-148.365,-26.9,-13.747,7.893,28.42,0.32144,-0.53275,-0.30423,-0.72125,20,0.908,0.022,0.398,-0.061,0.0,-0.061,3.016,-66.533,147.991,-24.4,-11.573,-17.107,31.11,0.21469,0.53342,-0.12921,0.8078,30,0.885,0.055,-0.433,0.061,0.122,0.0,172.755,-63.759,-8.569,-26.787,-11.733,10.367,32.05,-0.09296,-0.84256,0.09671,-0.52151,28
7,1.005,-0.129,-0.126,0.0,0.061,0.0,-134.632,-79.766,-86.034,-25.093,-5.94,-4.433,30.34,0.18692,0.68658,-0.30185,0.63437,25,0.965,0.099,0.248,0.244,-0.305,0.183,21.495,-74.641,-148.354,-26.9,-13.747,7.893,28.42,0.32144,-0.53275,-0.30423,-0.72125,21,0.909,0.021,0.397,-0.183,0.061,-0.061,3.021,-66.533,147.986,-24.4,-11.573,-17.107,31.11,0.21469,0.53342,-0.12921,0.8078,31,0.885,0.055,-0.432,0.0,0.122,0.0,172.749,-63.759,-8.569,-26.787,-11.733,10.367,32.05,-0.09296,-0.84256,0.09671,-0.52151,29
8,1.005,-0.129,-0.125,0.0,0.0,0.0,-134.632,-79.766,-86.039,-25.147,-5.873,-4.767,30.34,0.18692,0.68658,-0.30185,0.63437,38,0.966,0.099,0.247,0.061,-0.183,0.183,21.495,-74.647,-148.365,-26.9,-13.747,7.893,28.42,0.32175,-0.53259,-0.30502,-0.72086,32,0.909,0.021,0.396,-0.366,0.061,-0.061,3.016,-66.528,147.969,-24.4,-11.573,-17.107,31.11,0.21469,0.53342,-0.12921,0.8078,40,0.885,0.055,-0.432,0.061,0.122,0.0,172.749,-63.765,-8.564,-26.787,-11.733,10.367,32.05,-0.09296,-0.84256,0.09671,-0.52151,34
9,1.005,-0.128,-0.126,-0.061,0.0,0.0,-134.632,-79.766,-86.045,-25.147,-5.873,-4.767,30.34,0.18692,0.68658,-0.30185,0.63437,39,0.965,0.098,0.246,0.0,-0.061,0.122,21.495,-74.647,-148.37,-26.9,-13.747,7.893,28.42,0.32175,-0.53259,-0.30502,-0.72086,33,0.911,0.022,0.396,-0.244,0.305,-0.061,3.016,-66.522,147.936,-24.4,-11.573,-17.107,31.11,0.21469,0.53342,-0.12921,0.8078,41,0.885,0.055,-0.432,0.122,0.122,0.0,172.755,-63.765,-8.558,-26.787,-11.733,10.367,32.05,-0.09296,-0.84256,0.09671,-0.52151,35
10,1.006,-0.129,-0.127,-0.061,0.0,0.0,-134.632,-79.766,-86.05,-25.147,-5.873,-4.767,30.34,0.18738,0.68625,-0.30231,0.6344,42,0.967,0.099,0.246,0.0,0.0,0.122,21.489,-74.652,-148.381,-26.9,-13.747,7.893,28.42,0.32175,-0.53259,-0.30502,-0.72086,36,0.913,0.023,0.396,0.0,0.427,-0.061,3.016,-66.517,147.903,-24.4,-11.573,-17.107,31.11,0.21716,0.53293,-0.13037,0.80728,44,0.885,0.055,-0.432,0.122,0.0,0.0,172.755,-63.765,-8.558,-26.787,-11.733,10.367,32.05,-0.09296,-0.84256,0.09671,-0.52151,46
11,1.006,-0.129,-0.127,-0.061,0.061,0.0,-134.626,-79.766,-86.061,-25.147,-5.873,-4.767,30.34,0.18738,0.68625,-0.30231,0.6344,43,0.969,0.1,0.246,0.244,0.0,0.183,21.489,-74.652,-148.387,-26.9,-13.747,7.893,28.42,0.32175,-0.53259,-0.30502,-0.72086,37,0.912,0.022,0.396,0.122,0.122,0.122,3.016,-66.511,147.876,-24.4,-11.573,-17.107,31.11,0.21716,0.53293,-0.13037,0.80728,45,0.885,0.054,-0.433,0.122,0.0,0.0,172.755,-63.765,-8.553,-26.787,-11.733,10.367,32.05,-0.09296,-0.84256,0.09671,-0.52151,47
12,1.005,-0.129,-0.127,0.0,0.0,0.0,-134.621,-79.766,-86.067,-25.147,-5.873,-4.767,30.34,0.18738,0.68625,-0.30231,0.6344,50,0.968,0.098,0.244,0.366,0.0,0.183,21.484,-74.652,-148.376,-26.9,-13.747,7.893,28.42,0.32175,-0.53259,-0.30502,-0.72086,48,0.911,0.022,0.396,0.0,-0.122,0.183,3.016,-66.506,147.87,-24.4,-11.573,-17.107,31.11,0.21716,0.53293,-0.13037,0.80728,58,0.885,0.054,-0.434,0.061,0.0,0.0,172.76,-63.765,-8.553,-26.787,-11.733,10.367,32.05,-0.09296,-0.84256,0.09671,-0.52151,54
13,1.005,-0.13,-0.127,0.0,0.0,0.0,-134.621,-79.766,-86.072,-25.147,-5.873,-4.767,30.34,0.18738,0.68625,-0.30231,0.6344,51,0.967,0.098,0.245,0.244,0.0,0.244,21.484,-74.652,-148.354,-26.9,-13.747,7.893,28.42,0.32175,-0.53259,-0.30502,-0.72086,49,0.908,0.02,0.396,-0.061,-0.061,0.183,3.01,-66.511,147.865,-24.4,-11.573,-17.107,31.11,0.21716,0.53293,-0.13037,0.80728,59,0.885,0.053,-0.433,0.122,0.122,0.0,172.76,-63.77,-8.547,-26.787,-11.733,10.367,32.05,-0.09296,-0.84256,0.09671,-0.52151,55
14,1.005,-0.13,-0.126,0.0,0.0,0.0,-134.621,-79.766,-86.078,-25.147,-5.873,-4.767,30.34,0.18738,0.68625,-0.30231,0.6344,56,0.965,0.097,0.246,0.061,0.061,0.305,21.473,-74.658,-148.337,-26.9,-13.747,7.893,28.42,0.32175,-0.53259,-0.30502,-0.72086,52,0.909,0.02,0.397,-0.244,0.061,0.061,2.999,-66.511,147.854,-24.4,-11.573,-17.107,31.11,0.21716,0.53293,-0.13037,0.80728,60,0.886,0.055,-0.432,0.061,0.061,0.0,172.76,-63.77,-8.547,-26.987,-11.927,9.82,32.05,-0.09296,-0.84256,0.09671,-0.52151,62
15,1.005,-0.129,-0.126,0.0,0.0,0.0,-134.615,-79.766,-86.083,-25.147,-5.873,-4.767,30.34,0.18738,0.68625,-0.30231,0.6344,57,0.965,0.097,0.247,0.0,0.061,0.183,21.456,-74.658,-148.326,-26.9,-13.747,7.893,28.42,0.32175,-0.53259,-0.30502,-0.72086,53,0.912,0.02,0.397,-0.244,0.305,-0.122,2.999,-66.506,147.843,-24.4,-11.573,-17.107,31.11,0.21716,0.53293,-0.13037,0.80728,61,0.885,0.054,-0.433,0.122,0.061,0.0,172.766,-63.77,-8.547,-26.987,-11.927,9.82,32.05,-0.09296,-0.84256,0.09671,-0.52151,63
16,1.005,-0.129,-0.127,-0.061,0.0,0.0,-134.615,-79.766,-86.089,-25.147,-5.873,-4.767,30.34,0.18738,0.68625,-0.30231,0.6344,66,0.968,0.097,0.247,0.061,0.061,0.061,21.451,-74.658,-148.326,-26.9,-13.747,7.893,28.42,0.32175,-0.53259,-0.30502,-0.72086,64,0.912,0.02,0.396,0.0,0.305,-0.183,2.999,-66.495,147.805,-24.4,-11.573,-17.107,31.11,0.21716,0.53293,-0.13037,0.80728,68,0.885,0.055,-0.433,0.061,0.0,0.0,172.766,-63.77,-8.542,-26.987,-11.927,9.82,32.05,-0.09265,-0.84253,0.09634,-0.5217,70
17,1.006,-0.129,-0.128,0.0,0.0,0.0,-134.615,-79.766,-86.094,-25.147,-5.873,-4.767,30.34,0.18738,0.68625,-0.30231,0.6344,67,0.969,0.098,0.245,0.305,0.0,0.0,21.456,-74.658,-148.337,-26.9,-13.747,7.893,28.42,0.32175,-0.53259,-0.30502,-0.72086,65,0.91,0.02,0.396,0.183,-0.061,-0.122,3.01,-66.495,147.772,-24.4,-11.573,-17.107,31.11,0.21716,0.53293,-0.13037,0.80728,69,0.885,0.055,-0.433,0.122,0.0,0.0,172.766,-63.77,-8.542,-26.987,-11.927,9.82,32.05,-0.09265,-0.84253,0.09634,-0.5217,71
18,1.005,-0.13,-0.127,0.0,0.061,0.0,-134.61,-79.772,-86.105,-25.147,-5.873,-4.767,30.34,0.18738,0.68625,-0.30231,0.6344,74,0.967,0.097,0.245,0.366,0.0,0.0,21.467,-74.658,-148.359,-26.9,-13.747,7.893,28.42,0.32175,-0.53259,-0.30502,-0.72086,72,0.91,0.021,0.397,0.061,0.0,-0.183,3.021,-66.495,147.728,-24.4,-11.573,-17.107,31.11,0.21716,0.53293,-0.13037,0.80728,76,0.884,0.054,-0.433,0.122,0.0,0.0,172.771,-63.77,-8.536,-26.987,-11.927,9.82,32.05,-0.09265,-0.84253,0.09634,-0.5217,78
19,1.004,-0.129,-0.127,0.0,0.122,0.0,-134.599,-79.772,-86.122,-25.147,-5.873,-4.767,30.34,0.18738,0.68625,-0.30231,0.6344,75,0.967,0.098,0.246,0.305,-0.061,0.0,21.478,-74.658,-148.376,-26.9,-13.747,7.893,28.42,0.32175,-0.53259,-0.30502,-0.72086,73,0.909,0.021,0.397,0.0,0.0,-0.183,3.027,-66.495,147.695,-24.4,-11.573,-17.107,31.11,0.21716,0.53293,-0.13037,0.80728,77,0.885,0.055,-0.433,0.122,0.0,0.0,172.771,-63.77,-8.536,-26.987,-11.927,9.82,32.05,-0.09265,-0.84253,0.09634,-0.5217,79
20,1.006,-0.129,-0.127,0.0,0.061,0.0,-134.594,-79.772,-86.127,-25.147,-5.873,-4.767,30.34,0.18738,0.68625,-0.30231,0.6344,82,0.965,0.098,0.246,0.244,-0.061,0.0,21.489,-74.658,-148.403,-26.9,-13.747,7.893,28.42,0.32175,-0.53259,-0.30502,-0.72086,80,0.909,0.022,0.398,-0.122,-0.061,-0.122,3.032,-66.495,147.673,-24.4,-11.573,-17.107,31.11,0.21716,0.53293,-0.13037,0.80728,84,0.885,0.054,-0.433,0.061,0.0,0.0,172.776,-63.77,-8.531,-26.987,-11.927,9.82,32.05,-0.09265,-0.84253,0.09634,-0.5217,86
21,1.006,-0.13,-0.126,0.0,0.183,0.0,-134.577,-79.777,-86.149,-25.147,-5.873,-4.767,30.34,0.18738,0.68625,-0.30231,0.6344,83,0.966,0.099,0.249,0.061,-0.061,0.0,21.495,-74.658,-148.425,-26.9,-13.747,7.893,28.42,0.32175,-0.53259,-0.30502,-0.72086,81,0.912,0.021,0.397,-0.305,0.244,-0.061,3.032,-66.489,147.64,-24.4,-11.573,-17.107,31.11,0.21716,0.53293,-0.13037,0.80728,85,0.885,0.055,-0.433,0.0,0.0,0.0,172.776,-63.77,-8.531,-26.987,-11.927,9.82,32.05,-0.09265,-0.84253,0.09634,-0.5217,87
22,1.005,-0.129,-0.126,0.0,0.122,0.0,-134.566,-79.777,-86.166,-25.147,-5.873,-4.767,30.34,0.18738,0.68625,-0.30231,0.6344,90,0.968,0.098,0.246,-0.122,0.122,0.0,21.495,-74.658,-148.447,-26.807,-14.053,7.7,28.42,0.32175,-0.53259,-0.30502,-0.72086,92,0.911,0.021,0.398,-0.366,0.0,-0.183,3.032,-66.484,147.634,-24.4,-11.573,-17.107,31.11,0.21716,0.53293,-0.13037,0.80728,88,0.885,0.055,-0.431,0.061,-0.061,0.0,172.776,-63.77,-8.531,-26.987,-11.927,9.82,32.05,-0.09265,-0.84253,0.09634,-0.5217,94
23,1.005,-0.129,-0.125,-0.061,0.0,0.0,-134.561,-79.777,-86.166,-25.147,-5.873,-4.767,30.34,0.18738,0.68625,-0.30231,0.6344,91,0.967,0.099,0.246,0.0,0.0,0.0,21.495,-74.658,-148.469,-26.807,-14.053,7.7,28.42,0.32175,-0.53259,-0.30502,-0.72086,93,0.908,0.019,0.395,-0.488,0.0,-0.427,3.038,-66.484,147.645,-24.4,-11.573,-17.107,31.11,0.21716,0.53293,-0.13037,0.80728,89,0.884,0.054,-0.434,0.061,0.061,0.0,172.776,-63.77,-8.525,-26.987,-11.927,9.82,32.05,-0.09265,-0.84253,0.09634,-0.5217,95
24,1.006,-0.129,-0.125,0.0,0.0,0.0,-134.561,-79.777,-86.171,-25.54,-5.973,-4.9,30.34,0.18738,0.68625,-0.30231,0.6344,96,0.963,0.097,0.245,-0.305,-0.183,-0.183,21.506,-74.658,-148.491,-26.807,-14.053,7.7,28.42,0.32092,-0.53308,-0.3045,-0.7211,98,0.91,0.017,0.391,0.0,0.305,-0.61,3.054,-66.478,147.618,-24.4,-11.573,-17.107,31.11,0.21716,0.53293,-0.13037,0.80728,100,0.886,0.054,-0.433,0.122,0.122,0.0,172.776,-63.77,-8.525,-26.987,-11.927,9.82,32.05,-0.09265,-0.84253,0.09634,-0.5217,102
25,1.006,-0.13,-0.127,0.0,-0.061,0.0,-134.561,-79.777,-86.177,-25.54,-5.973,-4.9,30.34,0.18738,0.68625,-0.30231,0.6344,97,0.966,0.094,0.244,0.244,0.0,-0.305,21.528,-74.658,-148.519,-26.807,-14.053,7.7,28.42,0.32092,-0.53308,-0.3045,-0.7211,99,0.913,0.019,0.398,0.244,0.305,-0.793,3.087,-66.473,147.568,-24.4,-11.573,-17.107,31.11,0.21716,0.53293,-0.13037,0.80728,101,0.885,0.054,-0.433,0.061,0.061,0.0,172.776,-63.776,-8.52,-26.987,-11.927,9.82,32.05,-0.09265,-0.84253,0.09634,-0.5217,103
26,1.007,-0.129,-0.128,0.0,0.061,0.0,-134.561,-79.777,-86.177,-25.54,-5.973,-4.9,30.34,0.18738,0.68625,-0.30231,0.6344,104,0.969,0.097,0.247,0.427,0.305,-0.671,21.561,-74.652,-148.546,-26.807,-14.053,7.7,28.42,0.32092,-0.53308,-0.3045,-0.7211,106,0.912,0.026,0.399,-0.061,0.0,-0.916,3.126,-66.467,147.497,-24.133,-11.327,-17.507,31.11,0.21716,0.53293,-0.13037,0.80728,112,0.886,0.055,-0.434,0.0,0.0,0.0,172.782,-63.776,-8.52,-26.987,-11.927,9.82,32.05,-0.09265,-0.84253,0.09634,-0.5217,108
27,1.005,-0.129,-0.127,-0.183,0.061,0.0,-134.555,-79.777,-86.188,-25.54,-5.973,-4.9,30.34,0.18738,0.68625,-0.30231,0.6344,105,0.968,0.101,0.246,-0.122,0.366,-0.671,21.605,-74.641,-148.574,-26.807,-14.053,7.7,28.42,0.32092,-0.53308,-0.3045,-0.7211,107,0.912,0.025,0.4,-0.183,0.0,-0.427,3.153,-66.467,147.431,-24.133,-11.327,-17.507,31.11,0.21716,0.53293,-0.13037,0.80728,113,0.885,0.056,-0.433,0.0,-0.122,0.0,172.782,-63.776,-8.52,-26.987,-11.927,9.82,32.05,-0.09265,-0.84253,0.09634,-0.5217,109
28,1.005,-0.128,-0.128,-0.122,0.0,0.0,-134.55,-79.777,-86.193,-25.54,-5.973,-4.9,30.34,0.18771,0.686,-0.30261,0.6344,118,0.968,0.1,0.247,-0.122,0.061,-0.305,21.627,-74.636,-148.596,-26.807,-14.053,7.7,28.42,0.32092,-0.53308,-0.3045,-0.7211,110,0.912,0.027,0.399,-0.366,-0.305,-0.244,3.164,-66.467,147.382,-24.133,-11.327,-17.507,31.11,0.22015,0.53229,-0.13159,0.8067,114,0.885,0.055,-0.433,0.122,-0.122,0.0,172.782,-63.77,-8.514,-26.987,-11.927,9.82,32.05,-0.09265,-0.84253,0.09634,-0.5217,116
29,1.005,-0.129,-0.127,0.0,0.183,0.0,-134.55,-79.777,-86.204,-25.54,-5.973,-4.9,30.34,0.18771,0.686,-0.30261,0.6344,119,0.968,0.102,0.246,0.0,-0.122,0.0,21.643,-74.636,-148.607,-26.807,-14.053,7.7,28.42,0.32092,-0.53308,-0.3045,-0.7211,111,0.908,0.028,0.397,0.0,-0.366,0.061,3.164,-66.473,147.354,-24.133,-11.327,-17.507,31.11,0.22015,0.53229,-0.13159,0.8067,115,0.885,0.055,-0.433,0.0,0.0,0.0,172.782,-63.77,-8.514,-26.987,-11.927,9.82,32.05,-0.09265,-0.84253,0.09634,-0.5217,117
30,1.005,-0.129,-0.125,0.0,0.244,0.0,-134.533,-79.783,-86.226,-25.54,-5.973,-4.9,30.34,0.18771,0.686,-0.30261,0.6344,128,0.964,0.102,0.245,0.244,-0.183,0.305,21.643,-74.641,-148.601,-26.807,-14.053,7.7,28.42,0.32092,-0.53308,-0.3045,-0.7211,120,0.907,0.025,0.396,0.061,-0.305,0.549,3.159,-66.478,147.338,-24.133,-11.327,-17.507,31.11,0.22015,0.53229,-0.13159,0.8067,124,0.885,0.055,-0.433,0.061,0.0,0.0,172.782,-63.77,-8.514,-27.553,-11.533,8.86,32.05,-0.09265,-0.84253,0.09634,-0.5217,126
31,1.005,-0.128,-0.126,-0.122,0.183,0.0,-134.517,-79.783,-86.248,-25.54,-5.973,-4.9,30.34,0.18771,0.686,-0.30261,0.6344,129,0.964,0.1,0.245,0.244,-0.061,0.549,21.627,-74.647,-148.574,-26.807,-14.053,7.7,28.42,0.32092,-0.53308,-0.3045,-0.7211,121,0.908,0.024,0.4,-0.61,0.122,0.61,3.131,-66.484,147.332,-24.133,-11.327,-17.507,31.11,0.22015,0.53229,-0.13159,0.8067,125,0.885,0.054,-0.43,0.061,-0.061,0.0,172.782,-63.77,-8.509,-27.553,-11.533,8.86,32.05,-0.09265,-0.84253,0.09634,-0.5217,127
32,1.005,-0.129,-0.125,-0.122,0.061,0.0,-134.506,-79.788,-86.265,-25.54,-5.973,-4.9,30.34,0.18771,0.686,-0.30261,0.6344,134,0.964,0.101,0.249,-0.183,0.122,0.61,21.594,-74.647,-148.541,-26.807,-14.053,7.7,28.42,0.32092,-0.53308,-0.3045,-0.7211,122,0.911,0.026,0.398,-1.465,0.732,0.305,3.093,-66.473,147.332,-24.133,-11.327,-17.507,31.11,0.22015,0.53229,-0.13159,0.8067,130,0.885,0.055,-0.431,0.122,-0.061,0.0,172.787,-63.765,-8.509,-27.553,-11.533,8.86,32.05,-0.09238,-0.84259,0.09601,-0.52173,136
33,1.004,-0.128,-0.125,-0.122,0.0,0.0,-134.5,-79.788,-86.27,-25.54,-5.973,-4.9,30.34,0.18771,0.686,-0.30261,0.6344,135,0.967,0.102,0.248,-0.793,0.305,0.732,21.539,-74.647,-148.491,-26.807,-14.053,7.7,28.42,0.32092,-0.53308,-0.3045,-0.7211,123,0.908,0.02,0.395,-0.671,0.488,0.549,3.054,-66.456,147.338,-24.133,-11.327,-17.507,31.11,0.22015,0.53229,-0.13159,0.8067,131,0.885,0.055,-0.432,0.122,-0.061,0.0,172.787,-63.765,-8.509,-27.553,-11.533,8.86,32.05,-0.09238,-0.84259,0.09601,-0.52173,137
34,1.005,-0.129,-0.125,-0.122,-0.061,0.0,-134.506,-79.788,-86.276,-25.54,-5.973,-4.9,30.34,0.18771,0.686,-0.30261,0.6344,138,0.965,0.096,0.244,-0.427,0.427,0.793,21.473,-74.647,-148.431,-26.807,-14.053,7.7,28.42,0.32092,-0.53308,-0.3045,-0.7211,132,0.907,0.017,0.396,-0.122,-0.061,0.793,3.016,-66.456,147.387,-24.133,-11.327,-17.507,31.11,0.22015,0.53229,-0.13159,0.8067,140,0.885,0.054,-0.432,0.122,0.0,0.0,172.787,-63.765,-8.509,-27.553,-11.533,8.86,32.05,-0.09238,-0.84259,0.09601,-0.52173,142
35,1.006,-0.128,-0.125,-0.061,-0.061,0.0,-134.511,-79.788,-86.276,-25.54,-5.973,-4.9,30.34,0.18771,0.686,-0.30261,0.6344,139,0.964,0.095,0.246,-0.061,0.366,0.61,21.412,-74.647,-148.387,-26.807,-14.053,7.7,28.42,0.32092,-0.53308,-0.3045,-0.7211,133,0.912,0.02,0.399,-0.732,0.0,0.183,2.988,-66.456,147.426,-24.133,-11.327,-17.507,31.11,0.22015,0.53229,-0.13159,0.8067,141,0.886,0.055,-0.433,0.183,0.0,0.0,172.793,-63.765,-8.503,-27.553,-11.533,8.86,32.05,-0.09238,-0.84259,0.09601,-0.52173,143
36,1.006,-0.128,-0.127,-0.061,0.0,0.0,-134.511,-79.788,-86.276,-25.54,-5.973,-4.9,30.34,0.18771,0.686,-0.30261,0.6344,144,0.969,0.098,0.249,-0.61,0.549,0.244,21.374,-74.636,-148.359,-26.807,-14.053,7.7,28.42,0.32092,-0.53308,-0.3045,-0.7211,146,0.915,0.024,0.399,-0.732,0.427,0.0,2.977,-66.445,147.442,-24.133,-11.327,-17.507,31.11,0.22015,0.53229,-0.13159,0.8067,148,0.885,0.056,-0.434,0.183,0.061,0.0,172.793,-63.765,-8.503,-27.553,-11.533,8.86,32.05,-0.09238,-0.84259,0.09601,-0.52173,150
37,1.005,-0.128,-0.128,-0.061,0.0,0.0,-134.511,-79.788,-86.276,-25.54,-5.973,-4.9,30.34,0.18771,0.686,-0.30261,0.6344,145,0.97,0.1,0.247,-0.549,0.366,0.305,21.341,-74.63,-148.337,-26.807,-14.053,7.7,28.42,0.32092,-0.53308,-0.3045,-0.7211,147,0.914,0.02,0.392,0.061,0.0,0.427,2.961,-66.445,147.475,-24.133,-11.327,-17.507,31.11,0.22015,0.53229,-0.13159,0.8067,149,0.885,0.055,-0.434,0.244,0.061,0.0,172.798,-63.77,-8.503,-27.553,-11.533,8.86,32.05,-0.09238,-0.84259,0.09601,-0.52173,151
38,1.006,-0.129,-0.127,0.0,0.0,0.0,-134.511,-79.788,-86.281,-25.54,-5.973,-4.9,30.34,0.18771,0.686,-0.30261,0.6344,158,0.97,0.096,0.241,0.122,0.122,0.427,21.313,-74.63,-148.31,-27.187,-14.1,8.58,28.42,0.32092,-0.53308,-0.3045,-0.7211,152,0.909,0.018,0.391,0.977,-0.061,0.549,2.955,-66.445,147.519,-24.133,-11.327,-17.507,31.11,0.22015,0.53229,-0.13159,0.8067,154,0.885,0.053,-0.435,0.427,0.183,0.0,172.804,-63.77,-8.498,-27.553,-11.533,8.86,32.05,-0.09238,-0.84259,0.09601,-0.52173,156
39,1.005,-0.13,-0.128,0.122,0.061,0.0,-134.511,-79.788,-86.287,-25.54,-5.973,-4.9,30.34,0.18771,0.686,-0.30261,0.6344,159,0.966,0.094,0.241,0.977,0.0,0.366,21.308,-74.636,-148.293,-27.187,-14.1,8.58,28.42,0.32092,-0.53308,-0.3045,-0.7211,153,0.908,0.019,0.398,0.793,0.0,0.305,2.955,-66.445,147.552,-24.133,-11.327,-17.507,31.11,0.22015,0.53229,-0.13159,0.8067,155,0.885,0.055,-0.433,0.305,0.183,0.0,172.809,-63.776,-8.498,-27.553,-11.533,8.86,32.05,-0.09238,-0.84259,0.09601,-0.52173,157
40,1.006,-0.129,-0.127,0.122,0.061,0.0,-134.5,-79.788,-86.298,-24.807,-5.28,-4.08,30.34,0.18771,0.686,-0.30261,0.6344,162,0.965,0.097,0.247,0.732,0.183,0.183,21.308,-74.636,-148.282,-27.187,-14.1,8.58,28.42,0.32092,-0.53308,-0.3045,-0.7211,160,0.909,0.022,0.4,-0.427,0.305,-0.244,2.955,-66.44,147.546,-24.133,-11.327,-17.507,31.11,0.22015,0.53229,-0.13159,0.8067,166,0.885,0.056,-0.431,0.244,0.061,0.0,172.815,-63.776,-8.492,-27.553,-11.533,8.86,32.05,-0.09238,-0.84259,0.09601,-0.52173,164
41,1.006,-0.129,-0.126,-0.061,0.0,0.0,-134.495,-79.788,-86.303,-24.807,-5.28,-4.08,30.34,0.18771,0.686,-0.30261,0.6344,163,0.964,0.101,0.25,-0.427,0.488,-0.061,21.302,-74.63,-148.288,-27.187,-14.1,8.58,28.42,0.32092,-0.53308,-0.3045,-0.7211,161,0.912,0.022,0.399,-0.854,0.61,-0.671,2.966,-66.429,147.546,-24.133,-11.327,-17.507,31.11,0.22015,0.53229,-0.13159,0.8067,167,0.886,0.056,-0.433,0.305,0.0,0.0,172.82,-63.776,-8.492,-27.553,-11.533,8.86,32.05,-0.09238,-0.84259,0.09601,-0.52173,165
42,1.006,-0.129,-0.126,-0.061,0.0,0.0,-134.5,-79.788,-86.309,-24.807,-5.28,-4.08,30.34,0.18771,0.686,-0.30261,0.6344,172,0.968,0.1,0.248,-0.854,0.61,-0.244,21.292,-74.619,-148.315,-27.187,-14.1,8.58,28.42,0.32129,-0.5329,-0.30414,-0.72122,174,0.908,0.021,0.4,-0.305,0.061,-0.427,2.983,-66.423,147.552,-24.373,-11.32,-16.48,31.11,0.22015,0.53229,-0.13159,0.8067,168,0.885,0.054,-0.432,0.244,0.0,0.0,172.826,-63.776,-8.492,-27.553,-11.533,8.86,32.05,-0.09238,-0.84259,0.09601,-0.52173,170
43,1.005,-0.13,-0.126,-0.183,0.061,0.0,-134.5,-79.788,-86.314,-24.807,-5.28,-4.08,30.34,0.18771,0.686,-0.30261,0.6344,173,0.966,0.097,0.246,-0.366,0.366,-0.183,21.286,-74.608,-148.332,-27.187,-14.1,8.58,28.42,0.32129,-0.5329,-0.30414,-0.72122,175,0.906,0.02,0.402,-0.061,-0.488,-0.061,2.988,-66.429,147.601,-24.373,-11.32,-16.48,31.11,0.22015,0.53229,-0.13159,0.8067,169,0.885,0.054,-0.431,0.305,0.0,0.0,172.826,-63.776,-8.487,-27.553,-11.533,8.86,32.05,-0.09238,-0.84259,0.09601,-0.52173,171
44,1.006,-0.13,-0.125,-0.183,0.0,0.0,-134.495,-79.788,-86.32,-24.807,-5.28,-4.08,30.34,0.18817,0.68573,-0.30301,0.63437,178,0.963,0.096,0.249,-0.122,0.061,-0.061,21.292,-74.603,-148.359,-27.187,-14.1,8.58,28.42,0.32129,-0.5329,-0.30414,-0.72122,182,0.913,0.023,0.401,-0.549,-0.061,-0.183,2.988,-66.429,147.651,-24.373,-11.32,-16.48,31.11,0.22015,0.53229,-0.13159,0.8067,180,0.885,0.055,-0.431,0.427,0.0,0.0,172.837,-63.776,-8.487,-27.313,-11.733,9.38,32.05,-0.09238,-0.84259,0.09601,-0.52173,176
45,1.005,-0.129,-0.125,-0.366,0.0,0.0,-134.5,-79.788,-86.325,-24.807,-5.28,-4.08,30.34,0.18817,0.68573,-0.30301,0.63437,179,0.968,0.099,0.252,-0.305,-0.061,0.061,21.292,-74.608,-148.376,-27.187,-14.1,8.58,28.42,0.32129,-0.5329,-0.30414,-0.72122,183,0.914,0.024,0.396,-0.305,0.366,-0.061,2.988,-66.423,147.678,-24.373,-11.32,-16.48,31.11,0.22015,0.53229,-0.13159,0.8067,181,0.886,0.056,-0.433,0.488,0.061,0.0,172.842,-63.776,-8.487,-27.313,-11.733,9.38,32.05,-0.09238,-0.84259,0.09601,-0.52173,177
46,1.006,-0.127,-0.126,-0.488,-0.061,0.305,-134.5,-79.788,-86.331,-24.807,-5.28,-4.08,30.34,0.18817,0.68573,-0.30301,0.63437,188,0.97,0.1,0.244,-0.061,0.0,0.366,21.275,-74.608,-148.376,-27.187,-14.1,8.58,28.42,0.32129,-0.5329,-0.30414,-0.72122,190,0.912,0.027,0.395,-0.183,0.183,0.183,2.977,-66.418,147.695,-24.373,-11.32,-16.48,31.11,0.21896,0.53195,-0.13138,0.80728,184,0.885,0.057,-0.433,0.305,0.061,0.0,172.848,-63.776,-8.481,-27.313,-11.733,9.38,32.05,-0.09238,-0.84259,0.09601,-0.52173,186
47,1.006,-0.127,-0.126,-0.488,0.0,0.305,-134.484,-79.783,-86.353,-24.807,-5.28,-4.08,30.34,0.18817,0.68573,-0.30301,0.63437,189,0.967,0.102,0.243,0.0,0.061,0.549,21.242,-74.614,-148.354,-27.187,-14.1,8.58,28.42,0.32129,-0.5329,-0.30414,-0.72122,191,0.907,0.027,0.396,-0.549,-0.122,0.427,2.955,-66.418,147.722,-24.373,-11.32,-16.48,31.11,0.21896,0.53195,-0.13138,0.80728,185,0.886,0.056,-0.432,0.0,0.0,0.0,172.848,-63.776,-8.481,-27.313,-11.733,9.38,32.05,-0.09238,-0.84259,0.09601,-0.52173,187
48,1.005,-0.127,-0.126,-0.671,0.122,0.183,-134.473,-79.783,-86.38,-24.807,-5.28,-4.08,30.34,0.18817,0.68573,-0.30301,0.63437,192,0.964,0.104,0.246,-0.793,0.427,0.427,21.204,-74.608,-148.332,-27.187,-14.1,8.58,28.42,0.32129,-0.5329,-0.30414,-0.72122,194,0.911,0.022,0.398,-0.854,0.183,0.244,2.933,-66.418,147.75,-24.373,-11.32,-16.48,31.11,0.21896,0.53195,-0.13138,0.80728,198,0.885,0.056,-0.432,-0.305,-0.061,0.0,172.842,-63.776,-8.481,-27.313,-11.733,9.38,32.05,-0.09177,-0.84262,0.09552,-0.52188,196
49,1.006,-0.128,-0.126,-0.854,0.244,0.0,-134.462,-79.783,-86.407,-24.807,-5.28,-4.08,30.34,0.18817,0.68573,-0.30301,0.63437,193,0.967,0.1,0.249,-1.038,0.732,0.366,21.149,-74.597,-148.304,-27.187,-14.1,8.58,28.42,0.32129,-0.5329,-0.30414,-0.72122,195,0.912,0.021,0.4,-0.977,0.366,-0.061,2.917,-66.407,147.777,-24.373,-11.32,-16.48,31.11,0.21896,0.53195,-0.13138,0.80728,199,0.885,0.054,-0.432,-0.488,-0.061,0.0,172.831,-63.776,-8.476,-27.313,-11.733,9.38,32.05,-0.09177,-0.84262,0.09552,-0.52188,197
50,1.006,-0.129,-0.126,-0.854,0.183,0.0,-134.462,-79.783,-86.429,-24.807,-5.28,-4.08,30.34,0.18817,0.68573,-0.30301,0.63437,206,0.968,0.098,0.247,-0.854,0.671,0.244,21.105,-74.586,-148.288,-27.187,-14.1,8.58,28.42,0.32129,-0.5329,-0.30414,-0.72122,200,0.911,0.018,0.396,-0.671,0.0,0.0,2.906,-66.407,147.816,-24.373,-11.32,-16.48,31.11,0.21896,0.53195,-0.13138,0.80728,202,0.885,0.054,-0.433,-0.549,0.0,0.0,172.82,-63.776,-8.476,-27.313,-11.733,9.38,32.05,-0.09177,-0.84262,0.09552,-0.52188,208
51,1.005,-0.129,-0.125,-0.732,0.183,0.0,-134.462,-79.788,-86.451,-24.807,-5.28,-4.08,30.34,0.18817,0.68573,-0.30301,0.63437,207,0.968,0.095,0.246,-0.61,0.244,0.244,21.077,-74.586,-148.277,-27.187,-14.1,8.58,28.42,0.32129,-0.5329,-0.30414,-0.72122,201,0.908,0.015,0.396,-0.122,-0.305,0.183,2.9,-66.412,147.843,-24.373,-11.32,-16.48,31.11,0.21896,0.53195,-0.13138,0.80728,203,0.885,0.054,-0.433,-0.671,0.0,0.0,172.809,-63.776,-8.476,-27.313,-11.733,9.38,32.05,-0.09177,-0.84262,0.09552,-0.52188,209
52,1.004,-0.129,-0.125,-0.61,0.0,0.122,-134.462,-79.788,-86.468,-24.807,-5.28,-4.08,30.37,0.18817,0.68573,-0.30301,0.63437,210,0.964,0.092,0.245,0.0,-0.061,0.061,21.077,-74.586,-148.288,-27.187,-14.1,8.58,28.42,0.32129,-0.5329,-0.30414,-0.72122,204,0.91,0.018,0.398,-0.183,-0.244,-0.183,2.9,-66.418,147.849,-24.373,-11.32,-16.48,31.11,0.21896,0.53195,-0.13138,0.80728,212,0.885,0.054,-0.432,-0.61,0.061,0.0,172.793,-63.776,-8.476,-27.313,-11.733,9.38,32.05,-0.09177,-0.84262,0.09552,-0.52188,214
53,1.005,-0.13,-0.125,-0.549,0.0,0.183,-134.462,-79.788,-86.479,-24.807,-5.28,-4.08,30.37,0.18817,0.68573,-0.30301,0.63437,211,0.965,0.096,0.25,0.0,-0.183,-0.183,21.094,-74.586,-148.315,-27.187,-14.1,8.58,28.42,0.32129,-0.5329,-0.30414,-0.72122,205,0.909,0.021,0.399,-0.427,-0.122,-0.427,2.911,-66.418,147.843,-24.373,-11.32,-16.48,31.11,0.21896,0.53195,-0.13138,0.80728,213,0.885,0.054,-0.431,-0.549,0.0,0.0,172.782,-63.776,-8.47,-27.313,-11.733,9.38,32.05,-0.09177,-0.84262,0.09552,-0.52188,215
54,1.006,-0.13,-0.125,-0.732,0.061,0.122,-134.456,-79.788,-86.495,-24.807,-5.28,-4.08,30.37,0.18817,0.68573,-0.30301,0.63437,216,0.966,0.098,0.249,-0.183,-0.183,-0.366,21.121,-74.592,-148.359,-27.187,-14.1,8.58,28.42,0.32129,-0.5329,-0.30414,-0.72122,218,0.912,0.022,0.398,-0.244,-0.244,-0.61,2.933,-66.418,147.827,-24.373,-11.32,-16.48,31.11,0.21896,0.53195,-0.13138,0.80728,220,0.886,0.054,-0.432,-0.549,0.0,0.305,172.776,-63.776,-8.476,-27.313,-11.733,9.38,32.05,-0.09177,-0.84262,0.09552,-0.52188,222
55,1.006,-0.13,-0.126,-0.793,0.0,0.122,-134.456,-79.788,-86.512,-24.807,-5.28,-4.08,30.37,0.18817,0.68573,-0.30301,0.63437,217,0.968,0.099,0.248,-0.122,-0.122,-0.305,21.149,-74.592,-148.403,-27.187,-14.1,8.58,28.42,0.32129,-0.5329,-0.30414,-0.72122,219,0.91,0.023,0.398,0.0,-0.305,-0.549,2.961,-66.423,147.794,-24.373,-11.32,-16.48,31.11,0.21896,0.53195,-0.13138,0.80728,221,0.885,0.054,-0.433,-0.549,0.0,0.305,172.782,-63.781,-8.492,-27.313,-11.733,9.38,32.05,-0.09177,-0.84262,0.09552,-0.52188,223
56,1.005,-0.13,-0.127,-0.793,0.061,0.183,-134.456,-79.783,-86.528,-24.807,-5.28,-4.08,30.37,0.18817,0.68573,-0.30301,0.63437,226,0.966,0.098,0.246,0.061,-0.183,-0.244,21.176,-74.592,-148.442,-27.187,-14.1,8.58,28.42,0.32129,-0.5329,-0.30414,-0.72122,224,0.911,0.024,0.398,0.0,-0.427,-0.244,2.977,-66.429,147.788,-24.373,-11.32,-16.48,31.11,0.21896,0.53195,-0.13138,0.80728,230,0.886,0.052,-0.433,-0.61,0.0,0.305,172.782,-63.781,-8.503,-27.313,-11.733,9.38,32.05,-0.09177,-0.84262,0.09552,-0.52188,228
57,1.005,-0.131,-0.126,-0.732,0.061,0.183,-134.451,-79.783,-86.556,-24.807,-5.28,-4.08,30.37,0.18817,0.68573,-0.30301,0.63437,227,0.967,0.098,0.248,0.0,-0.061,-0.061,21.193,-74.592,-148.469,-27.187,-14.1,8.58,28.42,0.32129,-0.5329,-0.30414,-0.72122,225,0.91,0.02,0.397,0.061,-0.305,0.0,2.983,-66.434,147.805,-24.373,-11.32,-16.48,31.11,0.21896,0.53195,-0.13138,0.80728,231,0.885,0.052,-0.432,-0.488,0.0,0.305,172.782,-63.781,-8.514,-27.313,-11.733,9.38,32.05,-0.09177,-0.84262,0.09552,-0.52188,229
58,1.006,-0.131,-0.126,-0.732,0.0,0.122,-134.445,-79.783,-86.572,-24.807,-5.28,-4.08,30.37,0.18817,0.68573,-0.30301,0.63437,234,0.967,0.096,0.248,0.183,0.0,0.183,21.193,-74.592,-148.48,-27.187,-14.1,8.58,28.42,0.32129,-0.5329,-0.30414,-0.72122,232,0.911,0.018,0.399,-0.122,-0.549,0.0,2.983,-66.445,147.81,-24.373,-11.32,-16.48,31.11,0.21896,0.53195,-0.13138,0.80728,240,0.885,0.052,-0.434,-0.488,0.0,0.305,172.787,-63.781,-8.525,-27.313,-11.733,9.38,32.05,-0.09177,-0.84262,0.09552,-0.52188,236
59,1.006,-0.131,-0.126,-0.671,0.0,0.122,-134.445,-79.777,-86.583,-24.807,-5.28,-4.08,30.37,0.18817,0.68573,-0.30301,0.63437,235,0.967,0.094,0.247,0.0,0.0,0.061,21.193,-74.597,-148.491,-27.187,-14.1,8.58,28.42,0.32129,-0.5329,-0.30414,-0.72122,233,0.913,0.018,0.395,-0.305,-0.122,0.061,2.977,-66.451,147.805,-24.373,-11.32,-16.48,31.11,0.21896,0.53195,-0.13138,0.80728,241,0.886,0.053,-0.434,-0.427,0.061,0.183,172.787,-63.781,-8.536,-27.313,-11.733,9.38,32.05,-0.09177,-0.84262,0.09552,-0.52188,237
60,1.006,-0.131,-0.127,-0.549,0.0,0.122,-134.445,-79.777,-86.594,-24.807,-5.28,-4.08,30.37,0.18817,0.68573,-0.30301,0.63437,238,0.969,0.094,0.247,-0.061,-0.061,0.061,21.187,-74.597,-148.502,-27.12,-14.04,9.08,28.42,0.32129,-0.5329,-0.30414,-0.72122,242,0.91,0.018,0.399,0.0,-0.488,0.061,2.972,-66.456,147.794,-23.973,-11.68,-17.427,31.11,0.21896,0.53195,-0.13138,0.80728,244,0.886,0.051,-0.431,-0.427,0.0,0.183,172.787,-63.781,-8.542,-27.32,-11.947,10.427,32.05,-0.09177,-0.84262,0.09552,-0.52188,246
61,1.005,-0.133,-0.126,-0.427,0.0,0.061,-134.445,-79.777,-86.605,-24.807,-5.28,-4.08,30.37,0.18817,0.68573,-0.30301,0.63437,239,0.967,0.094,0.245,0.427,-0.183,0.061,21.198,-74.603,-148.519,-27.12,-14.04,9.08,28.42,0.32129,-0.5329,-0.30414,-0.72122,243,0.912,0.02,0.398,-0.244,-0.122,0.0,2.966,-66.462,147.794,-23.973,-11.68,-17.427,31.11,0.21896,0.53195,-0.13138,0.80728,245,0.886,0.049,-0.433,-0.305,0.061,0.183,172.793,-63.787,-8.547,-27.32,-11.947,10.427,32.05,-0.09177,-0.84262,0.09552,-0.52188,247
62,1.005,-0.133,-0.126,-0.244,-0.061,0.061,-134.445,-79.777,-86.611,-24.807,-5.28,-4.08,30.37,0.18817,0.68573,-0.30301,0.63437,248,0.967,0.096,0.25,0.427,-0.671,0.183,21.209,-74.614,-148.535,-27.12,-14.04,9.08,28.42,0.31927,-0.53372,-0.3024,-0.72223,250,0.914,0.017,0.391,0.183,0.488,0.366,2.955,-66.451,147.788,-23.973,-11.68,-17.427,31.11,0.21896,0.53195,-0.13138,0.80728,252,0.885,0.049,-0.434,-0.183,0.244,0.122,172.793,-63.792,-8.553,-27.32,-11.947,10.427,32.05,-0.09247,-0.84244,0.09628,-0.52188,254
63,1.005,-0.132,-0.127,-0.183,-0.122,0.061,-134.445,-79.772,-86.611,-24.807,-5.28,-4.08,30.37,0.18817,0.68573,-0.30301,0.63437,249,0.969,0.091,0.244,0.793,-0.427,0.549,21.204,-74.625,-148.535,-27.12,-14.04,9.08,28.42,0.31927,-0.53372,-0.3024,-0.72223,251,0.915,0.019,0.397,0.0,0.366,0.305,2.939,-66.445,147.772,-23.973,-11.68,-17.427,31.11,0.21896,0.53195,-0.13138,0.80728,253,0.885,0.053,-0.432,0.0,0.244,0.0,172.798,-63.792,-8.553,-27.32,-11.947,10.427,32.05,-0.09247,-0.84244,0.09628,-0.52188,255
64,1.005,-0.13,-0.128,-0.183,0.0,0.061,-134.44,-79.772,-86.616,-24.807,-5.28,-4.08,30.37,0.18817,0.68573,-0.30301,0.63437,256,0.971,0.095,0.247,0.61,0.183,0.488,21.182,-74.63,-148.513,-27.12,-14.04,9.08,28.42,0.31927,-0.53372,-0.3024,-0.72223,258,0.908,0.025,0.399,-0.488,-0.061,0.427,2.911,-66.445,147.766,-23.973,-11.68,-17.427,31.11,0.21866,0.5321,-0.13147,0.80725,260,0.885,0.055,-0.433,-0.061,0.061,0.061,172.804,-63.798,-8.553,-27.32,-11.947,10.427,32.05,-0.09247,-0.84244,0.09628,-0.52188,262
65,1.005,-0.129,-0.127,-0.244,0.061,0.122,-134.429,-79.766,-86.627,-24.807,-5.28,-4.08,30.37,0.18817,0.68573,-0.30301,0.63437,257,0.966,0.1,0.246,-0.366,0.488,0.427,21.138,-74.625,-148.486,-27.12,-14.04,9.08,28.42,0.31927,-0.53372,-0.3024,-0.72223,259,0.905,0.023,0.401,-0.488,-0.732,0.916,2.867,-66.456,147.788,-23.973,-11.68,-17.427,31.11,0.21866,0.5321,-0.13147,0.80725,261,0.885,0.055,-0.43,-0.061,-0.061,0.122,172.809,-63.798,-8.553,-27.32,-11.947,10.427,32.05,-0.09247,-0.84244,0.09628,-0.52188,263
66,1.003,-0.129,-0.125,-0.183,-0.061,0.061,-134.423,-79.766,-86.638,-25.053,-5.58,-4.833,30.37,0.18817,0.68573,-0.30301,0.63437,270,0.961,0.099,0.249,-0.671,0.427,0.671,21.077,-74.625,-148.442,-27.12,-14.04,9.08,28.42,0.31927,-0.53372,-0.3024,-0.72223,264,0.903,0.016,0.398,-0.244,-1.221,0.854,2.823,-66.478,147.81,-23.973,-11.68,-17.427,31.11,0.21866,0.5321,-0.13147,0.80725,266,0.884,0.053,-0.428,-0.061,-0.061,0.061,172.815,-63.798,-8.558,-27.32,-11.947,10.427,32.05,-0.09247,-0.84244,0.09628,-0.52188,268
67,1.004,-0.13,-0.125,0.122,-0.122,0.122,-134.418,-79.761,-86.638,-25.053,-5.58,-4.833,30.37,0.18817,0.68573,-0.30301,0.63437,271,0.962,0.095,0.25,-0.244,0.427,0.732,21.011,-74.619,-148.398,-27.12,-14.04,9.08,28.42,0.31927,-0.53372,-0.3024,-0.72223,265,0.903,0.012,0.399,-0.488,-0.732,0.0,2.807,-66.495,147.799,-23.973,-11.68,-17.427,31.11,0.21866,0.5321,-0.13147,0.80725,267,0.886,0.052,-0.429,-0.061,-0.061,0.0,172.815,-63.792,-8.558,-27.32,-11.947,10.427,32.05,-0.09247,-0.84244,0.09628,-0.52188,269
68,1.006,-0.131,-0.124,0.183,-0.122,0.122,-134.412,-79.761,-86.644,-25.053,-5.58,-4.833,30.37,0.1893,0.68506,-0.30466,0.63397,276,0.96,0.091,0.25,-0.488,0.671,0.183,20.973,-74.608,-148.381,-27.12,-14.04,9.08,28.42,0.31927,-0.53372,-0.3024,-0.72223,272,0.91,0.018,0.403,-0.61,-0.061,-0.366,2.807,-66.495,147.794,-23.973,-11.68,-17.427,31.11,0.21866,0.5321,-0.13147,0.80725,280,0.886,0.052,-0.431,0.0,-0.061,0.0,172.815,-63.792,-8.558,-27.32,-11.947,10.427,32.05,-0.09247,-0.84244,0.09628,-0.52188,278
69,1.006,-0.131,-0.124,0.061,-0.244,0.061,-134.412,-79.755,-86.638,-25.053,-5.58,-4.833,30.37,0.1893,0.68506,-0.30466,0.63397,277,0.966,0.093,0.254,-0.549,0.549,0.0,20.951,-74.597,-148.381,-27.12,-14.04,9.08,28.42,0.31927,-0.53372,-0.3024,-0.72223,273,0.911,0.016,0.399,-0.061,0.183,0.0,2.807,-66.489,147.788,-23.973,-11.68,-17.427,31.11,0.21866,0.5321,-0.13147,0.80725,281,0.886,0.051,-0.432,0.0,0.0,0.0,172.82,-63.798,-8.553,-27.32,-11.947,10.427,32.05,-0.09247,-0.84244,0.09628,-0.52188,279
70,1.006,-0.132,-0.126,0.0,-0.366,0.061,-134.423,-79.75,-86.622,-25.053,-5.58,-4.833,30.37,0.1893,0.68506,-0.30466,0.63397,284,0.968,0.092,0.249,0.183,0.061,0.244,20.934,-74.597,-148.376,-27.12,-14.04,9.08,28.42,0.31927,-0.53372,-0.3024,-0.72223,274,0.912,0.016,0.397,0.183,-0.122,0.0,2.807,-66.489,147.81,-23.973,-11.68,-17.427,31.11,0.21866,0.5321,-0.13147,0.80725,282,0.886,0.052,-0.433,0.183,0.0,-0.061,172.826,-63.798,-8.553,-27.32,-11.947,10.427,32.05,-0.09247,-0.84244,0.09628,-0.52188,288
71,1.005,-0.131,-0.127,0.0,-0.366,0.0,-134.445,-79.744,-86.594,-25.053,-5.58,-4.833,30.37,0.1893,0.68506,-0.30466,0.63397,285,0.967,0.092,0.248,0.549,-0.183,0.244,20.929,-74.603,-148.376,-27.12,-14.04,9.08,28.42,0.31927,-0.53372,-0.3024,-0.72223,275,0.914,0.018,0.396,0.244,-0.183,-0.122,2.812,-66.489,147.821,-23.973,-11.68,-17.427,31.11,0.21866,0.5321,-0.13147,0.80725,283,0.885,0.052,-0.433,0.122,0.0,-0.061,172.826,-63.798,-8.547,-27.32,-11.947,10.427,32.05,-0.09247,-0.84244,0.09628,-0.52188,289
72,1.006,-0.131,-0.127,0.183,-0.366,0.0,-134.462,-79.739,-86.572,-25.053,-5.58,-4.833,30.37,0.1893,0.68506,-0.30466,0.63397,290,0.969,0.095,0.248,0.61,-0.244,0.122,20.94,-74.608,-148.387,-27.12,-14.04,9.08,28.42,0.31927,-0.53372,-0.3024,-0.72223,286,0.912,0.02,0.394,0.122,-0.366,-0.122,2.818,-66.495,147.827,-23.973,-11.68,-17.427,31.11,0.21866,0.5321,-0.13147,0.80725,292,0.885,0.054,-0.433,0.061,0.061,-0.061,172.831,-63.798,-8.542,-27.32,-11.947,10.427,32.05,-0.09247,-0.84244,0.09628,-0.52188,294
73,1.005,-0.13,-0.127,0.122,-0.244,0.0,-134.478,-79.733,-86.55,-25.053,-5.58,-4.833,30.37,0.1893,0.68506,-0.30466,0.63397,291,0.968,0.096,0.245,0.305,-0.061,0.061,20.94,-74.608,-148.398,-27.12,-14.04,9.08,28.42,0.31927,-0.53372,-0.3024,-0.72223,287,0.912,0.021,0.395,-0.183,-0.305,-0.061,2.818,-66.5,147.854,-23.973,-11.68,-17.427,31.11,0.21866,0.5321,-0.13147,0.80725,293,0.885,0.054,-0.433,0.0,0.061,-0.061,172.831,-63.798,-8.536,-27.32,-11.947,10.427,32.05,-0.09247,-0.84244,0.09628,-0.52188,295
74,1.006,-0.131,-0.128,0.0,-0.061,0.0,-134.484,-79.733,-86.539,-25.053,-5.58,-4.833,30.37,0.1893,0.68506,-0.30466,0.63397,298,0.968,0.097,0.246,-0.061,0.0,0.0,20.94,-74.608,-148.414,-27.12,-14.04,9.08,28.42,0.31927,-0.53372,-0.3024,-0.72223,296,0.911,0.018,0.396,-0.122,-0.366,0.0,2.812,-66.506,147.881,-23.973,-11.68,-17.427,31.11,0.21866,0.5321,-0.13147,0.80725,300,0.885,0.053,-0.434,-0.061,0.061,-0.061,172.826,-63.798,-8.536,-27.353,-12.087,9.707,32.05,-0.09247,-0.84244,0.09628,-0.52188,302
75,1.006,-0.131,-0.128,-0.122,0.0,0.0,-134.484,-79.733,-86.539,-25.053,-5.58,-4.833,30.37,0.1893,0.68506,-0.30466,0.63397,299,0.967,0.096,0.246,-0.061,0.122,-0.061,20.94,-74.608,-148.425,-27.12,-14.04,9.08,28.42,0.31927,-0.53372,-0.3024,-0.72223,297,0.907,0.013,0.394,0.61,-0.854,0.122,2.818,-66.517,147.909,-23.973,-11.68,-17.427,31.11,0.21866,0.5321,-0.13147,0.80725,301,0.886,0.052,-0.432,-0.061,0.0,-0.061,172.826,-63.798,-8.531,-27.353,-12.087,9.707,32.05,-0.09247,-0.84244,0.09628,-0.52188,303
76,1.006,-0.131,-0.128,0.0,-0.061,0.0,-134.484,-79.733,-86.539,-25.053,-5.58,-4.833,30.37,0.1893,0.68506,-0.30466,0.63397,306,0.965,0.091,0.247,0.427,0.0,-0.061,20.951,-74.608,-148.442,-27.12,-14.04,9.08,28.42,0.31927,-0.53372,-0.3024,-0.72223,304,0.911,0.015,0.397,0.488,-0.427,-0.305,2.834,-66.528,147.931,-23.973,-11.68,-17.427,31.11,0.21866,0.5321,-0.13147,0.80725,310,0.886,0.052,-0.434,-0.061,0.0,-0.122,172.82,-63.798,-8.525,-27.353,-12.087,9.707,32.05,-0.09216,-0.84244,0.09598,-0.52197,308
77,1.006,-0.13,-0.128,0.0,-0.061,0.0,-134.484,-79.733,-86.534,-25.053,-5.58,-4.833,30.37,0.1893,0.68506,-0.30466,0.63397,307,0.965,0.091,0.248,0.793,-0.122,-0.305,20.989,-74.608,-148.48,-27.12,-14.04,9.08,28.42,0.31927,-0.53372,-0.3024,-0.72223,305,0.914,0.021,0.398,0.0,0.0,-0.732,2.862,-66.528,147.936,-23.973,-11.68,-17.427,31.11,0.21866,0.5321,-0.13147,0.80725,311,0.887,0.054,-0.433,-0.061,0.0,-0.122,172.82,-63.798,-8.52,-27.353,-12.087,9.707,32.05,-0.09216,-0.84244,0.09598,-0.52197,309
78,1.006,-0.129,-0.127,0.0,-0.061,0.0,-134.484,-79.728,-86.534,-25.053,-5.58,-4.833,30.37,0.1893,0.68506,-0.30466,0.63397,312,0.969,0.097,0.25,0.61,-0.122,-0.427,21.033,-74.608,-148.53,-27.067,-14.06,8.093,28.42,0.31927,-0.53372,-0.3024,-0.72223,314,0.911,0.027,0.4,-0.61,0.183,-0.671,2.878,-66.522,147.931,-24.073,-11.487,-16.553,31.11,0.21866,0.5321,-0.13147,0.80725,316,0.886,0.055,-0.433,-0.183,0.0,-0.061,172.815,-63.798,-8.514,-27.353,-12.087,9.707,32.05,-0.09216,-0.84244,0.09598,-0.52197,318
79,1.004,-0.13,-0.126,0.0,-0.122,0.0,-134.489,-79.728,-86.528,-25.053,-5.58,-4.833,30.37,0.1893,0.68506,-0.30466,0.63397,313,0.967,0.101,0.248,0.0,-0.244,-0.366,21.066,-74.608,-148.574,-27.067,-14.06,8.093,28.42,0.31927,-0.53372,-0.3024,-0.72223,315,0.912,0.025,0.397,-0.732,0.0,-0.305,2.884,-66.522,147.925,-24.073,-11.487,-16.553,31.11,0.21866,0.5321,-0.13147,0.80725,317,0.885,0.055,-0.432,-0.061,0.0,-0.061,172.809,-63.798,-8.509,-27.353,-12.087,9.707,32.05,-0.09216,-0.84244,0.09598,-0.52197,319
80,1.004,-0.129,-0.126,-0.061,-0.061,0.0,-134.495,-79.728,-86.523,-25.053,-5.58,-4.833,30.37,0.1893,0.68506,-0.30466,0.63397,322,0.967,0.1,0.249,-0.244,-0.366,-0.061,21.077,-74.619,-148.601,-27.067,-14.06,8.093,28.42,0.31827,-0.5343,-0.30127,-0.72275,320,0.91,0.023,0.398,-0.305,-0.549,0.061,2.878,-66.528,147.914,-24.073,-11.487,-16.553,31.11,0.21866,0.5321,-0.13147,0.80725,324,0.885,0.053,-0.431,-0.061,0.0,0.0,172.809,-63.798,-8.509,-27.353,-12.087,9.707,32.05,-0.09216,-0.84244,0.09598,-0.52197,326
81,1.004,-0.129,-0.125,-0.122,-0.061,0.0,-134.5,-79.728,-86.523,-25.053,-5.58,-4.833,30.37,0.1893,0.68506,-0.30466,0.63397,323,0.966,0.098,0.248,0.061,-0.427,0.183,21.077,-74.625,-148.612,-27.067,-14.06,8.093,28.42,0.31827,-0.5343,-0.30127,-0.72275,321,0.906,0.021,0.396,-0.183,-0.732,0.366,2.867,-66.539,147.914,-24.073,-11.487,-16.553,31.11,0.21866,0.5321,-0.13147,0.80725,325,0.885,0.054,-0.429,-0.122,0.0,-0.061,172.809,-63.798,-8.503,-27.353,-12.087,9.707,32.05,-0.09216,-0.84244,0.09598,-0.52197,327
82,1.005,-0.129,-0.125,-0.061,-0.122,0.0,-134.506,-79.722,-86.517,-25.467,-5.553,-4.9,30.37,0.1893,0.68506,-0.30466,0.63397,330,0.963,0.097,0.247,0.122,-0.488,0.427,21.066,-74.636,-148.607,-27.067,-14.06,8.093,28.42,0.31827,-0.5343,-0.30127,-0.72275,328,0.906,0.02,0.396,-0.732,-0.549,0.244,2.845,-66.55,147.953,-24.073,-11.487,-16.553,31.11,0.21765,0.53287,-0.13141,0.80704,334,0.885,0.055,-0.429,0.0,0.0,-0.061,172.804,-63.798,-8.503,-27.353,-12.087,9.707,32.05,-0.09216,-0.84244,0.09598,-0.52197,332
83,1.005,-0.128,-0.126,-0.061,-0.244,0.0,-134.517,-79.722,-86.506,-25.467,-5.553,-4.9,30.37,0.1893,0.68506,-0.30466,0.63397,331,0.961,0.097,0.25,-0.427,-0.061,0.305,21.044,-74.641,-148.601,-27.067,-14.06,8.093,28.42,0.31827,-0.5343,-0.30127,-0.72275,329,0.913,0.02,0.396,-0.916,-0.305,-0.061,2.829,-66.555,147.986,-24.073,-11.487,-16.553,31.11,0.21765,0.53287,-0.13141,0.80704,335,0.886,0.057,-0.429,0.0,0.0,0.0,172.804,-63.798,-8.503,-27.353,-12.087,9.707,32.05,-0.09216,-0.84244,0.09598,-0.52197,333
84,1.005,-0.128,-0.126,0.0,-0.305,0.0,-134.539,-79.722,-86.484,-25.467,-5.553,-4.9,30.37,0.1893,0.68506,-0.30466,0.63397,338,0.966,0.098,0.25,-0.61,0.183,0.122,21.022,-74.636,-148.596,-27.067,-14.06,8.093,28.42,0.31827,-0.5343,-0.30127,-0.72275,336,0.911,0.018,0.393,-0.061,-0.305,-0.183,2.834,-66.561,147.997,-24.073,-11.487,-16.553,31.11,0.21765,0.53287,-0.13141,0.80704,344,0.885,0.055,-0.431,0.0,-0.061,0.0,172.804,-63.798,-8.498,-27.353,-12.087,9.707,32.05,-0.09216,-0.84244,0.09598,-0.52197,340
85,1.006,-0.131,-0.128,0.122,-0.305,0.0,-134.555,-79.717,-86.462,-25.467,-5.553,-4.9,30.37,0.1893,0.68506,-0.30466,0.63397,339,0.967,0.097,0.246,0.0,0.061,0.0,21.028,-74.636,-148.607,-27.067,-14.06,8.093,28.42,0.31827,-0.5343,-0.30127,-0.72275,337,0.908,0.017,0.395,0.488,-0.854,-0.122,2.845,-66.572,147.991,-24.073,-11.487,-16.553,31.11,0.21765,0.53287,-0.13141,0.80704,345,0.886,0.052,-0.434,0.0,0.0,0.0,172.804,-63.798,-8.498,-27.353,-12.087,9.707,32.05,-0.09216,-0.84244,0.09598,-0.52197,341
86,1.007,-0.13,-0.129,0.183,-0.244,0.0,-134.572,-79.711,-86.44,-25.467,-5.553,-4.9,30.37,0.1889,0.68539,-0.3046,0.63376,350,0.965,0.094,0.245,0.549,0.061,-0.122,21.05,-74.63,-148.623,-27.067,-14.06,8.093,28.42,0.31827,-0.5343,-0.30127,-0.72275,342,0.915,0.019,0.397,0.061,-0.732,-0.427,2.867,-66.588,147.953,-24.073,-11.487,-16.553,31.11,0.21765,0.53287,-0.13141,0.80704,346,0.886,0.054,-0.433,0.0,0.0,0.0,172.804,-63.798,-8.498,-27.353,-12.087,9.707,32.05,-0.09216,-0.84244,0.09598,-0.52197,348
87,1.006,-0.129,-0.129,0.183,-0.244,0.0,-134.583,-79.711,-86.424,-25.467,-5.553,-4.9,30.37,0.1889,0.68539,-0.3046,0.63376,351,0.968,0.095,0.25,0.305,0.122,-0.183,21.066,-74.63,-148.645,-27.067,-14.06,8.093,28.42,0.31827,-0.5343,-0.30127,-0.72275,343,0.917,0.024,0.396,-0.244,-0.366,-0.61,2.895,-66.594,147.903,-24.073,-11.487,-16.553,31.11,0.21765,0.53287,-0.13141,0.80704,347,0.886,0.056,-0.434,0.0,0.0,0.0,172.809,-63.803,-8.498,-27.353,-12.087,9.707,32.05,-0.09216,-0.84244,0.09598,-0.52197,349
88,1.006,-0.129,-0.129,0.183,-0.183,0.0,-134.599,-79.706,-86.413,-25.467,-5.553,-4.9,30.37,0.1889,0.68539,-0.3046,0.63376,356,0.971,0.099,0.248,0.0,0.0,-0.183,21.083,-74.625,-148.672,-27.067,-14.06,8.093,28.42,0.31827,-0.5343,-0.30127,-0.72275,352,0.913,0.023,0.392,0.0,-0.488,-0.366,2.911,-66.599,147.859,-24.073,-11.487,-16.553,31.11,0.21765,0.53287,-0.13141,0.80704,354,0.885,0.056,-0.436,0.0,0.061,0.0,172.804,-63.803,-8.498,-27.26,-11.613,9.453,32.05,-0.09216,-0.84244,0.09598,-0.52197,358
89,1.005,-0.13,-0.129,0.244,-0.183,0.0,-134.604,-79.706,-86.396,-25.467,-5.553,-4.9,30.37,0.1889,0.68539,-0.3046,0.63376,357,0.97,0.1,0.243,0.244,-0.305,0.0,21.099,-74.63,-148.689,-27.067,-14.06,8.093,28.42,0.31827,-0.5343,-0.30127,-0.72275,353,0.911,0.022,0.392,0.0,-0.488,-0.061,2.922,-66.61,147.843,-24.073,-11.487,-16.553,31.11,0.21765,0.53287,-0.13141,0.80704,355,0.885,0.054,-0.434,0.061,0.122,0.0,172.804,-63.803,-8.492,-27.26,-11.613,9.453,32.05,-0.09216,-0.84244,0.09598,-0.52197,359
90,1.004,-0.133,-0.13,0.183,-0.122,0.0,-134.615,-79.706,-86.391,-25.467,-5.553,-4.9,30.37,0.1889,0.68539,-0.3046,0.63376,362,0.967,0.098,0.243,0.305,-0.488,0.061,21.116,-74.641,-148.711,-27.067,-14.06,8.093,28.42,0.31827,-0.5343,-0.30127,-0.72275,360,0.909,0.022,0.396,-0.305,-0.183,0.0,2.922,-66.616,147.843,-24.073,-11.487,-16.553,31.11,0.21765,0.53287,-0.13141,0.80704,364,0.885,0.052,-0.432,0.122,0.061,0.0,172.809,-63.803,-8.492,-27.26,-11.613,9.453,32.05,-0.09213,-0.84244,0.09579,-0.52203,366
91,1.004,-0.132,-0.127,0.183,-0.061,0.0,-134.615,-79.7,-86.385,-25.467,-5.553,-4.9,30.37,0.1889,0.68539,-0.3046,0.63376,363,0.965,0.097,0.247,0.183,-0.305,0.122,21.127,-74.652,-148.722,-27.067,-14.06,8.093,28.42,0.31827,-0.5343,-0.30127,-0.72275,361,0.911,0.022,0.396,-1.099,0.122,0.122,2.9,-66.61,147.859,-24.073,-11.487,-16.553,31.11,0.21765,0.53287,-0.13141,0.80704,365,0.886,0.052,-0.43,0.0,0.0,0.0,172.809,-63.803,-8.492,-27.26,-11.613,9.453,32.05,-0.09213,-0.84244,0.09579,-0.52203,367
92,1.005,-0.131,-0.126,0.061,-0.061,0.0,-134.615,-79.7,-86.385,-25.467,-5.553,-4.9,30.37,0.1889,0.68539,-0.3046,0.63376,368,0.965,0.098,0.25,-0.427,-0.061,0.305,21.105,-74.652,-148.711,-27.067,-14.06,8.093,28.42,0.31827,-0.5343,-0.30127,-0.72275,370,0.913,0.021,0.395,-1.465,0.305,0.366,2.862,-66.605,147.87,-24.073,-11.487,-16.553,31.11,0.21765,0.53287,-0.13141,0.80704,372,0.885,0.053,-0.429,-0.061,-0.061,0.0,172.809,-63.803,-8.492,-27.26,-11.613,9.453,32.05,-0.09213,-0.84244,0.09579,-0.52203,374
93,1.005,-0.13,-0.126,0.0,-0.122,0.0,-134.621,-79.7,-86.375,-25.467,-5.553,-4.9,30.37,0.1889,0.68539,-0.3046,0.63376,369,0.967,0.096,0.249,-0.916,0.244,0.61,21.044,-74.652,-148.672,-27.067,-14.06,8.093,28.42,0.31827,-0.5343,-0.30127,-0.72275,371,0.912,0.021,0.395,-1.099,0.305,0.977,2.802,-66.599,147.909,-24.073,-11.487,-16.553,31.11,0.21765,0.53287,-0.13141,0.80704,373,0.885,0.053,-0.43,-0.122,-0.061,0.0,172.809,-63.803,-8.492,-27.26,-11.613,9.453,32.05,-0.09213,-0.84244,0.09579,-0.52203,375
94,1.005,-0.13,-0.127,0.061,-0.183,0.0,-134.632,-79.695,-86.364,-25.467,-5.553,-4.9,30.37,0.1889,0.68539,-0.3046,0.63376,378,0.967,0.095,0.247,-0.732,0.244,0.916,20.962,-74.652,-148.612,-27.107,-14.053,8.567,28.42,0.31827,-0.5343,-0.30127,-0.72275,376,0.912,0.015,0.393,-0.488,0.122,1.343,2.736,-66.599,147.942,-24.073,-11.487,-16.553,31.11,0.21765,0.53287,-0.13141,0.80704,380,0.885,0.054,-0.43,-0.061,-0.122,0.0,172.809,-63.798,-8.492,-27.26,-11.613,9.453,32.05,-0.09213,-0.84244,0.09579,-0.52203,382
95,1.004,-0.13,-0.127,-0.061,-0.122,0.0,-134.637,-79.695,-86.358,-25.467,-5.553,-4.9,30.37,0.1889,0.68539,-0.3046,0.63376,379,0.967,0.093,0.247,-0.183,0.305,1.038,20.885,-74.658,-148.541,-27.107,-14.053,8.567,28.42,0.31827,-0.5343,-0.30127,-0.72275,377,0.912,0.012,0.393,0.183,-0.183,1.16,2.681,-66.599,147.98,-24.073,-11.487,-16.553,31.11,0.21765,0.53287,-0.13141,0.80704,381,0.885,0.055,-0.433,-0.122,0.0,0.0,172.809,-63.798,-8.492,-27.26,-11.613,9.453,32.05,-0.09213,-0.84244,0.09579,-0.52203,383
96,1.005,-0.13,-0.127,-0.183,-0.183,0.0,-134.648,-79.695,-86.347,-25.467,-5.553,-4.9,30.37,0.1889,0.68539,-0.3046,0.63376,390,0.967,0.09,0.245,0.305,0.122,0.854,20.836,-74.658,-148.486,-27.107,-14.053,8.567,28.42,0.31827,-0.5343,-0.30127,-0.72275,384,0.911,0.013,0.391,0.366,0.0,0.671,2.653,-66.605,148.008,-24.073,-11.487,-16.553,31.11,0.21765,0.53287,-0.13141,0.80704,386,0.885,0.055,-0.432,-0.061,0.061,0.0,172.809,-63.803,-8.487,-27.26,-11.613,9.453,32.05,-0.09213,-0.84244,0.09579,-0.52203,388
97,1.005,-0.129,-0.128,0.0,-0.122,0.0,-134.659,-79.689,-86.336,-25.467,-5.553,-4.9,30.37,0.1889,0.68539,-0.3046,0.63376,391,0.965,0.092,0.244,0.671,0.0,0.427,20.825,-74.663,-148.469,-27.107,-14.053,8.567,28.42,0.31827,-0.5343,-0.30127,-0.72275,385,0.907,0.015,0.396,0.0,-0.183,-0.122,2.648,-66.605,148.019,-24.073,-11.487,-16.553,31.11,0.21765,0.53287,-0.13141,0.80704,387,0.885,0.054,-0.43,-0.183,-0.061,0.0,172.809,-63.803,-8.487,-27.26,-11.613,9.453,32.05,-0.09213,-0.84244,0.09579,-0.52203,389
98,1.005,-0.13,-0.128,0.061,-0.122,0.0,-134.665,-79.689,-86.331,-25.48,-5.833,-4.593,30.37,0.1889,0.68539,-0.3046,0.63376,394,0.964,0.096,0.25,-0.061,0.0,-0.549,20.836,-74.663,-148.486,-27.107,-14.053,8.567,28.42,0.31793,-0.53494,-0.30032,-0.72281,396,0.911,0.016,0.398,-0.427,0.061,-1.038,2.681,-66.605,147.98,-24.073,-11.713,-17.2,31.11,0.21765,0.53287,-0.13141,0.80704,392,0.886,0.052,-0.435,-0.427,0.0,0.0,172.804,-63.803,-8.487,-27.26,-11.613,9.453,32.05,-0.09213,-0.84244,0.09579,-0.52203,398
99,1.005,-0.131,-0.128,0.305,-0.122,0.0,-134.665,-79.689,-86.32,-25.48,-5.833,-4.593,30.37,0.1889,0.68539,-0.3046,0.63376,395,0.967,0.091,0.247,0.183,-0.122,-0.671,20.88,-74.658,-148.535,-27.107,-14.053,8.567,28.42,0.31793,-0.53494,-0.30032,-0.72281,397,0.913,0.015,0.394,-0.061,0.488,-1.16,2.725,-66.594,147.931,-24.073,-11.713,-17.2,31.11,0.21765,0.53287,-0.13141,0.80704,393,0.885,0.054,-0.432,-0.366,-0.061,0.0,172.798,-63.803,-8.487,-27.26,-11.613,9.453,32.05,-0.09213,-0.84244,0.09579,-0.52203,399
100,1.005,-0.132,-0.131,0.183,-0.061,0.0,-134.665,-79.684,-86.314,-25.48,-5.833,-4.593,30.37,0.1889,0.68539,-0.3046,0.63376,404,0.971,0.093,0.247,0.916,-0.122,-0.488,20.934,-74.658,-148.596,-27.107,-14.053,8.567,28.42,0.31793,-0.53494,-0.30032,-0.72281,402,0.916,0.019,0.395,0.61,0.671,-0.671,2.763,-66.583,147.887,-24.073,-11.713,-17.2,31.11,0.21765,0.53287,-0.13141,0.80704,400,0.886,0.055,-0.434,-0.305,-0.183,0.0,172.793,-63.798,-8.487,-27.26,-11.613,9.453,32.05,-0.09213,-0.84244,0.09579,-0.52203,408
101,1.005,-0.13,-0.13,-0.061,0.0,0.0,-134.665,-79.684,-86.314,-25.48,-5.833,-4.593,30.37,0.1889,0.68539,-0.3046,0.63376,405,0.97,0.098,0.246,0.732,-0.061,-0.366,20.984,-74.658,-148.64,-27.107,-14.053,8.567,28.42,0.31793,-0.53494,-0.30032,-0.72281,403,0.913,0.022,0.398,0.549,-0.061,-0.488,2.796,-66.577,147.838,-24.073,-11.713,-17.2,31.11,0.21765,0.53287,-0.13141,0.80704,401,0.885,0.054,-0.433,-0.305,-0.244,0.0,172.787,-63.798,-8.487,-27.26,-11.613,9.453,32.05,-0.09213,-0.84244,0.09579,-0.52203,409
102,1.005,-0.129,-0.128,-0.122,0.0,0.0,-134.67,-79.684,-86.32,-25.48,-5.833,-4.593,30.37,0.18857,0.68567,-0.30453,0.63361,412,0.964,0.098,0.246,0.488,-0.427,-0.305,21.022,-74.658,-148.678,-27.107,-14.053,8.567,28.42,0.31793,-0.53494,-0.30032,-0.72281,406,0.907,0.021,0.398,0.305,-0.793,-0.061,2.812,-66.588,147.816,-24.073,-11.713,-17.2,31.11,0.21844,0.53287,-0.13232,0.80667,416,0.884,0.053,-0.432,-0.183,-0.244,0.0,172.782,-63.792,-8.487,-27.26,-11.613,9.453,32.05,-0.09213,-0.84244,0.09579,-0.52203,410
103,1.004,-0.13,-0.127,0.0,-0.061,0.0,-134.67,-79.684,-86.314,-25.48,-5.833,-4.593,30.37,0.18857,0.68567,-0.30453,0.63361,413,0.96,0.096,0.249,0.366,-0.671,-0.122,21.066,-74.663,-148.716,-27.107,-14.053,8.567,28.42,0.31793,-0.53494,-0.30032,-0.72281,407,0.905,0.018,0.396,-0.305,-1.099,0.0,2.812,-66.61,147.827,-24.073,-11.713,-17.2,31.11,0.21844,0.53287,-0.13232,0.80667,417,0.885,0.054,-0.431,-0.122,-0.244,0.0,172.782,-63.787,-8.487,-27.26,-11.613,9.453,32.05,-0.09213,-0.84244,0.09579,-0.52203,411
104,1.004,-0.131,-0.127,0.122,-0.122,0.0,-134.676,-79.684,-86.309,-25.48,-5.833,-4.593,30.37,0.18857,0.68567,-0.30453,0.63361,424,0.964,0.097,0.249,-0.122,-0.061,-0.366,21.094,-74.674,-148.755,-27.107,-14.053,8.567,28.42,0.31793,-0.53494,-0.30032,-0.72281,414,0.906,0.017,0.392,-0.366,-0.732,-0.488,2.823,-66.621,147.816,-24.073,-11.713,-17.2,31.11,0.21844,0.53287,-0.13232,0.80667,418,0.885,0.055,-0.43,-0.183,-0.244,0.0,172.782,-63.781,-8.487,-27.26,-11.613,9.453,32.05,-0.09213,-0.84244,0.09579,-0.52203,420
105,1.005,-0.129,-0.127,0.061,-0.061,0.0,-134.681,-79.678,-86.303,-25.48,-5.833,-4.593,30.37,0.18857,0.68567,-0.30453,0.63361,425,0.959,0.097,0.249,-0.305,0.488,-0.61,21.121,-74.669,-148.793,-27.107,-14.053,8.567,28.42,0.31793,-0.53494,-0.30032,-0.72281,415,0.905,0.021,0.399,-0.916,-0.244,-0.977,2.845,-66.627,147.772,-24.073,-11.713,-17.2,31.11,0.21844,0.53287,-0.13232,0.80667,419,0.886,0.056,-0.431,-0.061,-0.183,0.0,172.782,-63.776,-8.487,-27.26,-11.613,9.453,32.05,-0.09213,-0.84244,0.09579,-0.52203,421
106,1.006,-0.129,-0.127,0.0,-0.061,0.0,-134.681,-79.678,-86.303,-25.48,-5.833,-4.593,30.37,0.18857,0.68567,-0.30453,0.63361,426,0.972,0.101,0.254,-1.282,0.671,-0.61,21.138,-74.652,-148.821,-27.107,-14.053,8.567,28.42,0.31793,-0.53494,-0.30032,-0.72281,422,0.919,0.023,0.399,-1.953,1.038,-1.343,2.867,-66.605,147.689,-24.073,-11.713,-17.2,31.11,0.21844,0.53287,-0.13232,0.80667,434,0.886,0.054,-0.433,0.061,-0.183,0.0,172.782,-63.776,-8.487,-27.26,-11.613,9.453,32.05,-0.09213,-0.84244,0.09579,-0.52203,428
107,1.005,-0.13,-0.128,0.0,-0.122,0.0,-134.687,-79.678,-86.298,-25.48,-5.833,-4.593,30.37,0.18857,0.68567,-0.30453,0.63361,427,0.975,0.096,0.244,-0.61,0.305,-0.305,21.138,-74.636,-148.826,-27.107,-14.053,8.567,28.42,0.31793,-0.53494,-0.30032,-0.72281,423,0.921,0.021,0.395,-1.282,1.282,-0.916,2.878,-66.572,147.656,-24.073,-11.713,-17.2,31.11,0.21844,0.53287,-0.13232,0.80667,435,0.886,0.05,-0.434,0.305,-0.183,0.0,172.782,-63.77,-8.487,-27.26,-11.613,9.453,32.05,-0.09213,-0.84244,0.09579,-0.52203,429
108,1.004,-0.133,-0.13,0.122,-0.183,0.0,-134.698,-79.678,-86.281,-25.48,-5.833,-4.593,30.37,0.18857,0.68567,-0.30453,0.63361,430,0.976,0.091,0.242,0.916,-0.671,0.366,21.143,-74.636,-148.815,-27.107,-14.053,8.567,28.42,0.31793,-0.53494,-0.30032,-0.72281,432,0.923,0.019,0.393,0.183,0.977,0.305,2.867,-66.555,147.7,-24.073,-11.713,-17.2,31.11,0.21844,0.53287,-0.13232,0.80667,436,0.884,0.047,-0.435,0.488,-0.183,-0.305,172.793,-63.765,-8.487,-27.26,-11.833,9.5,32.05,-0.09213,-0.84244,0.09579,-0.52203,438
109,1.004,-0.135,-0.129,0.366,-0.122,0.0,-134.698,-79.673,-86.276,-25.48,-5.833,-4.593,30.37,0.18857,0.68567,-0.30453,0.63361,431,0.971,0.085,0.237,2.93,-1.343,1.221,21.154,-74.652,-148.777,-27.107,-14.053,8.567,28.42,0.31793,-0.53494,-0.30032,-0.72281,433,0.911,0.012,0.385,3.113,-0.061,2.38,2.818,-66.561,147.832,-24.073,-11.713,-17.2,31.11,0.21844,0.53287,-0.13232,0.80667,437,0.884,0.05,-0.434,0.671,0.0,-0.427,172.793,-63.765,-8.47,-27.26,-11.833,9.5,32.05,-0.09213,-0.84244,0.09579,-0.52203,439
110,1.004,-0.134,-0.127,0.549,0.0,0.0,-134.687,-79.673,-86.276,-25.48,-5.833,-4.593,30.37,0.18857,0.68567,-0.30453,0.63361,440,0.96,0.085,0.239,3.601,-1.221,1.465,21.16,-74.691,-148.705,-27.107,-14.053,8.567,28.42,0.31793,-0.53494,-0.30032,-0.72281,442,0.901,0.01,0.389,2.991,-1.404,2.625,2.758,-66.588,147.969,-24.073,-11.713,-17.2,31.11,0.21844,0.53287,-0.13232,0.80667,444,0.885,0.057,-0.433,0.671,0.183,-0.427,172.793,-63.765,-8.448,-27.26,-11.833,9.5,32.05,-0.09204,-0.84265,0.09552,-0.52176,446
111,1.005,-0.128,-0.128,0.671,0.061,0.0,-134.665,-79.673,-86.281,-25.48,-5.833,-4.593,30.37,0.18857,0.68567,-0.30453,0.63361,441,0.956,0.098,0.251,1.587,-0.183,0.61,21.16,-74.718,-148.623,-27.107,-14.053,8.567,28.42,0.31793,-0.53494,-0.30032,-0.72281,443,0.898,0.019,0.398,0.244,-0.61,0.854,2.719,-66.605,148.024,-24.073,-11.713,-17.2,31.11,0.21844,0.53287,-0.13232,0.80667,445,0.886,0.062,-0.432,0.61,0.183,-0.366,172.787,-63.765,-8.432,-27.26,-11.833,9.5,32.05,-0.09204,-0.84265,0.09552,-0.52176,447
112,1.007,-0.125,-0.131,0.732,0.061,0.0,-134.643,-79.673,-86.287,-25.48,-5.833,-4.593,30.37,0.18857,0.68567,-0.30453,0.63361,450,0.96,0.107,0.255,-1.16,0.916,-0.488,21.149,-74.724,-148.59,-26.78,-13.633,8.367,28.42,0.31793,-0.53494,-0.30032,-0.72281,448,0.907,0.025,0.401,-1.709,0.366,-0.977,2.73,-66.594,147.98,-24.073,-11.713,-17.2,31.11,0.21844,0.53287,-0.13232,0.80667,456,0.886,0.061,-0.432,0.549,0.0,-0.183,172.787,-63.77,-8.416,-27.26,-11.833,9.5,32.05,-0.09204,-0.84265,0.09552,-0.52176,452
113,1.007,-0.125,-0.129,0.549,0.0,0.0,-134.632,-79.673,-86.287,-25.48,-5.833,-4.593,30.37,0.18857,0.68567,-0.30453,0.63361,451,0.97,0.106,0.252,-1.77,1.282,-0.977,21.138,-74.696,-148.607,-26.78,-13.633,8.367,28.42,0.31793,-0.53494,-0.30032,-0.72281,449,0.916,0.026,0.403,-1.953,1.221,-1.892,2.774,-66.566,147.887,-24.073,-11.713,-17.2,31.11,0.21844,0.53287,-0.13232,0.80667,457,0.885,0.055,-0.434,0.427,-0.183,-0.183,172.793,-63.765,-8.405,-27.26,-11.833,9.5,32.05,-0.09204,-0.84265,0.09552,-0.52176,453
114,1.005,-0.129,-0.13,0.366,0.0,0.0,-134.632,-79.673,-86.292,-25.48,-5.833,-4.593,30.37,0.18857,0.68567,-0.30453,0.63361,458,0.973,0.099,0.247,-0.305,0.305,-0.549,21.143,-74.669,-148.634,-26.78,-13.633,8.367,28.42,0.31793,-0.53494,-0.30032,-0.72281,454,0.919,0.023,0.401,-0.183,0.793,-1.343,2.834,-66.55,147.805,-24.22,-11.567,-17.72,31.11,0.21844,0.53287,-0.13232,0.80667,460,0.885,0.051,-0.435,0.366,-0.183,-0.244,172.787,-63.765,-8.399,-27.26,-11.833,9.5,32.05,-0.09204,-0.84265,0.09552,-0.52176,462
115,1.005,-0.133,-0.128,0.244,0.0,0.0,-134.626,-79.673,-86.292,-25.48,-5.833,-4.593,30.37,0.18857,0.68567,-0.30453,0.63361,459,0.972,0.094,0.243,1.709,-0.854,0.366,21.176,-74.669,-148.661,-26.78,-13.633,8.367,28.42,0.31793,-0.53494,-0.30032,-0.72281,455,0.916,0.023,0.391,1.953,0.183,0.366,2.856,-66.544,147.799,-24.22,-11.567,-17.72,31.11,0.21844,0.53287,-0.13232,0.80667,461,0.884,0.05,-0.434,0.488,-0.061,-0.366,172.787,-63.759,-8.383,-27.26,-11.833,9.5,32.05,-0.09204,-0.84265,0.09552,-0.52176,463
116,1.003,-0.132,-0.126,0.427,-0.061,0.0,-134.626,-79.673,-86.287,-25.48,-5.833,-4.593,30.37,0.18857,0.68567,-0.30453,0.63361,464,0.969,0.09,0.24,2.38,-0.916,1.038,21.204,-74.685,-148.661,-26.78,-13.633,8.367,28.42,0.31833,-0.53448,-0.30161,-0.72244,466,0.913,0.014,0.39,2.014,-0.366,1.648,2.823,-66.55,147.843,-24.22,-11.567,-17.72,31.11,0.21844,0.53287,-0.13232,0.80667,478,0.884,0.053,-0.432,0.671,0.122,-0.366,172.782,-63.759,-8.366,-27.26,-11.833,9.5,32.05,-0.09204,-0.84265,0.09552,-0.52176,468
117,1.004,-0.131,-0.126,0.732,-0.183,0.0,-134.621,-79.673,-86.276,-25.48,-5.833,-4.593,30.37,0.18857,0.68567,-0.30453,0.63361,465,0.968,0.093,0.242,1.465,-0.488,0.977,21.198,-74.707,-148.618,-26.78,-13.633,8.367,28.42,0.31833,-0.53448,-0.30161,-0.72244,467,0.913,0.02,0.391,0.671,-0.244,1.526,2.769,-66.561,147.892,-24.22,-11.567,-17.72,31.11,0.21844,0.53287,-0.13232,0.80667,479,0.885,0.057,-0.43,0.732,0.183,-0.366,172.782,-63.759,-8.35,-27.26,-11.833,9.5,32.05,-0.09204,-0.84265,0.09552,-0.52176,469
118,1.005,-0.129,-0.125,0.732,-0.061,0.0,-134.615,-79.673,-86.27,-25.06,-6.127,-3.873,30.37,0.18857,0.68567,-0.30453,0.63361,470,0.966,0.098,0.242,1.221,0.0,0.916,21.176,-74.724,-148.557,-26.78,-13.633,8.367,28.42,0.31833,-0.53448,-0.30161,-0.72244,472,0.911,0.019,0.388,1.221,-0.427,1.77,2.714,-66.572,147.964,-24.22,-11.567,-17.72,31.11,0.21826,0.53278,-0.13226,0.80679,482,0.884,0.06,-0.432,0.854,0.305,-0.305,172.787,-63.765,-8.333,-27.26,-11.833,9.5,32.05,-0.09204,-0.84265,0.09552,-0.52176,476
119,1.006,-0.126,-0.128,0.549,0.0,0.0,-134.604,-79.673,-86.276,-25.06,-6.127,-3.873,30.37,0.18857,0.68567,-0.30453,0.63361,471,0.964,0.095,0.238,1.648,0.488,0.427,21.143,-74.729,-148.491,-26.78,-13.633,8.367,28.42,0.31833,-0.53448,-0.30161,-0.72244,473,0.901,0.012,0.389,2.197,-1.892,1.404,2.697,-66.61,148.013,-24.22,-11.567,-17.72,31.11,0.21826,0.53278,-0.13226,0.80679,483,0.885,0.062,-0.433,0.671,0.305,-0.244,172.787,-63.77,-8.317,-27.26,-11.833,9.5,32.05,-0.09204,-0.84265,0.09552,-0.52176,477
120,1.008,-0.124,-0.13,0.549,0.0,0.0,-134.594,-79.673,-86.276,-25.06,-6.127,-3.873,30.37,0.18857,0.68567,-0.30453,0.63361,480,0.954,0.104,0.249,0.427,1.099,-0.793,21.149,-74.718,-148.475,-26.78,-13.633,8.367,28.42,0.31833,-0.53448,-0.30161,-0.72244,474,0.899,0.025,0.401,0.122,-2.075,-1.465,2.774,-66.649,147.925,-24.22,-11.567,-17.72,31.11,0.21826,0.53278,-0.13226,0.80679,488,0.886,0.065,-0.434,0.488,0.122,-0.061,172.787,-63.776,-8.306,-27.26,-11.833,9.5,32.05,-0.09204,-0.84265,0.09552,-0.52176,484
121,1.008,-0.122,-0.132,0.488,-0.061,0.0,-134.599,-79.673,-86.27,-25.06,-6.127,-3.873,30.37,0.18857,0.68567,-0.30453,0.63361,481,0.967,0.113,0.258,-1.404,1.709,-1.526,21.193,-74.691,-148.524,-26.78,-13.633,8.367,28.42,0.31833,-0.53448,-0.30161,-0.72244,475,0.915,0.034,0.408,-0.854,0.183,-2.319,2.867,-66.643,147.799,-24.22,-11.567,-17.72,31.11,0.21826,0.53278,-0.13226,0.80679,489,0.887,0.061,-0.435,0.244,-0.061,0.0,172.787,-63.776,-8.306,-27.26,-11.833,9.5,32.05,-0.09204,-0.84265,0.09552,-0.52176,485
122,1.007,-0.125,-0.131,0.305,0.0,0.0,-134.599,-79.673,-86.276,-25.06,-6.127,-3.873,30.37,0.18784,0.68591,-0.30392,0.63385,494,0.975,0.108,0.247,-0.427,0.916,-1.282,21.237,-74.647,-148.601,-26.78,-13.633,8.367,28.42,0.31833,-0.53448,-0.30161,-0.72244,486,0.922,0.028,0.396,0.122,0.916,-2.38,2.977,-66.616,147.678,-24.22,-11.567,-17.72,31.11,0.21826,0.53278,-0.13226,0.80679,500,0.886,0.053,-0.437,0.122,0.0,0.061,172.787,-63.77,-8.306,-27.26,-11.833,9.5,32.05,-0.09204,-0.84265,0.09552,-0.52176,490
123,1.005,-0.132,-0.13,0.122,0.0,0.0,-134.61,-79.673,-86.276,-25.06,-6.127,-3.873,30.37,0.18784,0.68591,-0.30392,0.63385,495,0.974,0.096,0.241,1.282,-0.427,-0.488,21.308,-74.63,-148.667,-26.78,-13.633,8.367,28.42,0.31833,-0.53448,-0.30161,-0.72244,487,0.917,0.025,0.396,0.916,0.671,-1.282,3.06,-66.599,147.607,-24.22,-11.567,-17.72,31.11,0.21826,0.53278,-0.13226,0.80679,501,0.884,0.047,-0.435,0.122,0.061,0.0,172.787,-63.77,-8.306,-27.26,-11.833,9.5,32.05,-0.09204,-0.84265,0.09552,-0.52176,491
124,1.003,-0.135,-0.127,0.061,0.0,0.0,-134.615,-79.678,-86.276,-25.06,-6.127,-3.873,30.37,0.18784,0.68591,-0.30392,0.63385,496,0.969,0.092,0.245,1.465,-1.282,0.366,21.379,-74.641,-148.711,-26.78,-13.633,8.367,28.42,0.31833,-0.53448,-0.30161,-0.72244,492,0.914,0.021,0.394,0.61,0.793,0.305,3.06,-66.583,147.612,-24.22,-11.567,-17.72,31.11,0.21826,0.53278,-0.13226,0.80679,504,0.885,0.049,-0.433,0.122,0.183,-0.122,172.787,-63.776,-8.3,-27.467,-11.653,10.32,32.05,-0.09204,-0.84265,0.09552,-0.52176,498
125,1.003,-0.133,-0.126,0.183,0.061,0.0,-134.61,-79.678,-86.281,-25.06,-6.127,-3.873,30.37,0.18784,0.68591,-0.30392,0.63385,497,0.967,0.095,0.245,0.366,-0.732,0.916,21.407,-74.663,-148.705,-26.78,-13.633,8.367,28.42,0.31833,-0.53448,-0.30161,-0.72244,493,0.908,0.024,0.394,-0.916,0.549,0.854,3.005,-66.572,147.64,-24.22,-11.567,-17.72,31.11,0.21826,0.53278,-0.13226,0.80679,505,0.884,0.054,-0.43,0.061,0.244,-0.061,172.782,-63.776,-8.295,-27.467,-11.653,10.32,32.05,-0.09204,-0.84265,0.09552,-0.52176,499
126,1.003,-0.131,-0.124,0.061,0.183,0.0,-134.594,-79.678,-86.298,-25.06,-6.127,-3.873,30.37,0.18784,0.68591,-0.30392,0.63385,508,0.963,0.1,0.247,-0.977,-0.122,1.221,21.363,-74.685,-148.651,-26.78,-13.633,8.367,28.42,0.31833,-0.53448,-0.30161,-0.72244,502,0.91,0.026,0.395,-2.38,0.854,1.404,2.895,-66.555,147.706,-24.22,-11.567,-17.72,31.11,0.21826,0.53278,-0.13226,0.80679,512,0.885,0.056,-0.428,0.061,0.183,0.0,172.782,-63.781,-8.295,-27.467,-11.653,10.32,32.05,-0.0914,-0.84271,0.09442,-0.52197,506
127,1.004,-0.129,-0.125,0.0,0.183,0.0,-134.577,-79.684,-86.314,-25.06,-6.127,-3.873,30.37,0.18784,0.68591,-0.30392,0.63385,509,0.965,0.098,0.246,-1.526,0.366,1.343,21.264,-74.691,-148.568,-26.78,-13.633,8.367,28.42,0.31833,-0.53448,-0.30161,-0.72244,503,0.908,0.019,0.391,-2.319,0.793,1.648,2.78,-66.544,147.805,-24.22,-11.567,-17.72,31.11,0.21826,0.53278,-0.13226,0.80679,513,0.884,0.056,-0.428,0.0,0.0,0.0,172.782,-63.781,-8.295,-27.467,-11.653,10.32,32.05,-0.0914,-0.84271,0.09442,-0.52197,507
128,1.004,-0.129,-0.127,-0.122,0.061,0.0,-134.572,-79.684,-86.32,-25.06,-6.127,-3.873,30.37,0.18784,0.68591,-0.30392,0.63385,514,0.961,0.096,0.245,-1.221,0.916,1.038,21.143,-74.691,-148.464,-26.78,-13.633,8.367,28.42,0.31833,-0.53448,-0.30161,-0.72244,510,0.903,0.016,0.394,-0.916,-0.427,1.282,2.708,-66.555,147.881,-24.22,-11.567,-17.72,31.11,0.21826,0.53278,-0.13226,0.80679,516,0.885,0.056,-0.429,0.0,-0.061,0.0,172.782,-63.781,-8.289,-27.467,-11.653,10.32,32.05,-0.0914,-0.84271,0.09442,-0.52197,518
129,1.005,-0.128,-0.128,-0.305,0.0,0.0,-134.577,-79.684,-86.32,-25.06,-6.127,-3.873,30.37,0.18784,0.68591,-0.30392,0.63385,515,0.961,0.095,0.25,-0.732,1.282,0.61,21.039,-74.68,-148.376,-26.78,-13.633,8.367,28.42,0.31833,-0.53448,-0.30161,-0.72244,511,0.905,0.015,0.4,-0.366,-0.854,0.732,2.67,-66.572,147.947,-24.22,-11.567,-17.72,31.11,0.21826,0.53278,-0.13226,0.80679,517,0.885,0.056,-0.431,-0.061,-0.183,0.0,172.782,-63.781,-8.289,-27.467,-11.653,10.32,32.05,-0.0914,-0.84271,0.09442,-0.52197,519
130,1.006,-0.127,-0.128,-0.366,0.0,0.0,-134.588,-79.684,-86.325,-25.06,-6.127,-3.873,30.37,0.18784,0.68591,-0.30392,0.63385,520,0.964,0.096,0.252,-0.488,1.16,0.183,20.973,-74.658,-148.321,-27.187,-13.633,8.047,28.42,0.31833,-0.53448,-0.30161,-0.72244,522,0.91,0.017,0.401,0.0,-0.549,0.244,2.664,-66.577,148.002,-24.22,-11.567,-17.72,31.11,0.21826,0.53278,-0.13226,0.80679,524,0.886,0.054,-0.432,-0.122,-0.305,-0.061,172.776,-63.776,-8.289,-27.467,-11.653,10.32,32.05,-0.0914,-0.84271,0.09442,-0.52197,526
131,1.007,-0.128,-0.128,-0.366,0.0,0.0,-134.594,-79.684,-86.325,-25.06,-6.127,-3.873,30.37,0.18784,0.68591,-0.30392,0.63385,521,0.968,0.093,0.25,0.183,0.61,0.183,20.94,-74.641,-148.299,-27.187,-13.633,8.047,28.42,0.31833,-0.53448,-0.30161,-0.72244,523,0.915,0.013,0.398,0.61,-0.183,0.305,2.664,-66.583,148.068,-24.22,-11.567,-17.72,31.11,0.21826,0.53278,-0.13226,0.80679,525,0.885,0.055,-0.433,-0.061,-0.244,-0.122,172.771,-63.77,-8.289,-27.467,-11.653,10.32,32.05,-0.0914,-0.84271,0.09442,-0.52197,527
132,1.005,-0.129,-0.127,-0.305,-0.183,0.0,-134.615,-79.684,-86.309,-25.06,-6.127,-3.873,30.37,0.18784,0.68591,-0.30392,0.63385,528,0.972,0.092,0.248,1.16,-0.183,0.244,20.94,-74.641,-148.288,-27.187,-13.633,8.047,28.42,0.31833,-0.53448,-0.30161,-0.72244,532,0.912,0.014,0.396,1.221,-0.366,0.0,2.686,-66.588,148.129,-24.22,-11.567,-17.72,31.11,0.21826,0.53278,-0.13226,0.80679,530,0.885,0.055,-0.432,0.0,-0.183,-0.061,172.771,-63.765,-8.284,-27.467,-11.653,10.32,32.05,-0.0914,-0.84271,0.09442,-0.52197,534
133,1.006,-0.128,-0.126,-0.122,-0.183,0.0,-134.632,-79.684,-86.298,-25.06,-6.127,-3.873,30.37,0.18784,0.68591,-0.30392,0.63385,529,0.962,0.093,0.243,2.258,-1.16,0.244,20.978,-74.652,-148.299,-27.187,-13.633,8.047,28.42,0.31833,-0.53448,-0.30161,-0.72244,533,0.905,0.015,0.391,1.648,-0.671,-0.061,2.725,-66.599,148.162,-24.22,-11.567,-17.72,31.11,0.21826,0.53278,-0.13226,0.80679,531,0.884,0.058,-0.436,0.0,0.061,-0.061,172.766,-63.765,-8.284,-27.467,-11.653,10.32,32.05,-0.0914,-0.84271,0.09442,-0.52197,535
134,1.005,-0.127,-0.125,-0.061,-0.122,0.0,-134.643,-79.684,-86.287,-25.06,-6.127,-3.873,30.37,0.18784,0.68591,-0.30392,0.63385,538,0.963,0.096,0.244,1.221,-0.916,-0.305,21.039,-74.674,-148.343,-27.187,-13.633,8.047,28.42,0.31967,-0.534,-0.302,-0.72205,536,0.908,0.021,0.393,-0.061,-0.061,-0.854,2.758,-66.599,148.151,-24.22,-11.567,-17.72,31.11,0.21826,0.53278,-0.13226,0.80679,544,0.885,0.06,-0.434,-0.061,0.122,0.0,172.76,-63.77,-8.278,-27.467,-11.653,10.32,32.05,-0.0914,-0.84271,0.09442,-0.52197,540
135,1.006,-0.126,-0.131,0.0,-0.061,0.0,-134.648,-79.684,-86.287,-25.06,-6.127,-3.873,30.37,0.18784,0.68591,-0.30392,0.63385,539,0.968,0.109,0.251,-0.305,0.061,-0.854,21.105,-74.68,-148.409,-27.187,-13.633,8.047,28.42,0.31967,-0.534,-0.302,-0.72205,537,0.917,0.031,0.399,-1.648,1.038,-2.075,2.818,-66.572,148.068,-24.22,-11.567,-17.72,31.11,0.21826,0.53278,-0.13226,0.80679,545,0.886,0.059,-0.434,0.122,0.0,0.061,172.76,-63.77,-8.278,-27.467,-11.653,10.32,32.05,-0.0914,-0.84271,0.09442,-0.52197,541
136,1.007,-0.127,-0.133,0.061,0.0,0.0,-134.654,-79.684,-86.287,-25.313,-5.987,-3.573,30.37,0.18784,0.68591,-0.30392,0.63385,542,0.972,0.107,0.248,-1.831,0.671,-0.977,21.143,-74.663,-148.475,-27.187,-13.633,8.047,28.42,0.31967,-0.534,-0.302,-0.72205,546,0.913,0.033,0.4,-2.075,0.793,-1.892,2.867,-66.555,147.975,-24.22,-11.567,-17.72,31.11,0.21826,0.53278,-0.13226,0.80679,554,0.886,0.055,-0.435,0.061,-0.061,0.122,172.766,-63.77,-8.284,-27.467,-11.653,10.32,32.05,-0.0914,-0.84271,0.09442,-0.52197,548
137,1.006,-0.131,-0.132,0.0,0.244,0.0,-134.643,-79.689,-86.309,-25.313,-5.987,-3.573,30.37,0.18784,0.68591,-0.30392,0.63385,543,0.968,0.101,0.245,-1.465,0.244,-0.244,21.149,-74.647,-148.519,-27.187,-13.633,8.047,28.42,0.31967,-0.534,-0.302,-0.72205,547,0.918,0.025,0.398,-0.854,0.122,-0.366,2.873,-66.55,147.969,-24.22,-11.567,-17.72,31.11,0.21826,0.53278,-0.13226,0.80679,555,0.885,0.049,-0.436,0.122,-0.183,0.061,172.771,-63.765,-8.289,-27.467,-11.653,10.32,32.05,-0.0914,-0.84271,0.09442,-0.52197,549
138,1.004,-0.134,-0.131,-0.122,0.061,0.0,-134.643,-79.689,-86.314,-25.313,-5.987,-3.573,30.37,0.18784,0.68591,-0.30392,0.63385,552,0.974,0.09,0.246,-0.183,-0.122,0.732,21.121,-74.647,-148.524,-27.187,-13.633,8.047,28.42,0.31967,-0.534,-0.302,-0.72205,550,0.918,0.016,0.392,-0.244,-0.183,0.977,2.829,-66.55,148.013,-24.16,-11.72,-16.86,31.11,0.21826,0.53278,-0.13226,0.80679,558,0.884,0.048,-0.436,0.305,-0.061,0.0,172.776,-63.765,-8.289,-27.16,-11.887,10.293,32.05,-0.0914,-0.84271,0.09442,-0.52197,560
139,1.004,-0.134,-0.131,0.0,0.0,0.0,-134.648,-79.689,-86.314,-25.313,-5.987,-3.573,30.37,0.18784,0.68591,-0.30392,0.63385,553,0.969,0.086,0.238,0.732,-0.244,1.343,21.066,-74.658,-148.469,-27.187,-13.633,8.047,28.42,0.31967,-0.534,-0.302,-0.72205,551,0.907,0.012,0.386,0.793,-0.61,1.953,2.758,-66.566,148.101,-24.16,-11.72,-16.86,31.11,0.21826,0.53278,-0.13226,0.80679,559,0.884,0.051,-0.434,0.366,0.0,-0.061,172.782,-63.759,-8.289,-27.16,-11.887,10.293,32.05,-0.0914,-0.84271,0.09442,-0.52197,561
140,1.004,-0.131,-0.127,0.183,0.122,0.0,-134.637,-79.689,-86.325,-25.313,-5.987,-3.573,30.37,0.18845,0.6857,-0.30438,0.63367,564,0.959,0.089,0.241,0.854,0.0,1.343,21.0,-74.674,-148.392,-27.187,-13.633,8.047,28.42,0.31967,-0.534,-0.302,-0.72205,556,0.904,0.011,0.39,0.427,-0.732,1.892,2.681,-66.583,148.195,-24.16,-11.72,-16.86,31.11,0.21826,0.53278,-0.13226,0.80679,568,0.884,0.056,-0.432,0.244,0.061,-0.061,172.787,-63.759,-8.284,-27.16,-11.887,10.293,32.05,-0.09131,-0.8428,0.09433,-0.52188,562
141,1.005,-0.128,-0.126,0.244,0.183,0.0,-134.621,-79.689,-86.342,-25.313,-5.987,-3.573,30.37,0.18845,0.6857,-0.30438,0.63367,565,0.965,0.093,0.249,-0.183,0.732,0.427,20.94,-74.674,-148.332,-27.187,-13.633,8.047,28.42,0.31967,-0.534,-0.302,-0.72205,557,0.911,0.011,0.395,-0.732,0.122,0.671,2.637,-66.583,148.222,-24.16,-11.72,-16.86,31.11,0.21826,0.53278,-0.13226,0.80679,569,0.885,0.057,-0.431,0.122,0.061,-0.061,172.787,-63.765,-8.278,-27.16,-11.887,10.293,32.05,-0.09131,-0.8428,0.09433,-0.52188,563
142,1.005,-0.128,-0.126,0.122,0.0,0.0,-134.621,-79.689,-86.342,-25.313,-5.987,-3.573,30.37,0.18845,0.6857,-0.30438,0.63367,570,0.967,0.096,0.248,-0.61,0.916,-0.366,20.907,-74.658,-148.321,-27.187,-13.633,8.047,28.42,0.31967,-0.534,-0.302,-0.72205,566,0.91,0.016,0.397,-0.793,0.305,-0.61,2.642,-66.577,148.173,-24.16,-11.72,-16.86,31.11,0.21683,0.53299,-0.13181,0.80713,572,0.886,0.056,-0.43,0.0,0.0,-0.061,172.787,-63.765,-8.278,-27.16,-11.887,10.293,32.05,-0.09131,-0.8428,0.09433,-0.52188,574
143,1.005,-0.129,-0.127,-0.122,0.0,0.0,-134.621,-79.689,-86.342,-25.313,-5.987,-3.573,30.37,0.18845,0.6857,-0.30438,0.63367,571,0.966,0.097,0.249,-0.366,0.549,-0.732,20.918,-74.641,-148.343,-27.187,-13.633,8.047,28.42,0.31967,-0.534,-0.302,-0.72205,567,0.912,0.02,0.399,-0.122,0.061,-0.977,2.686,-66.572,148.101,-24.16,-11.72,-16.86,31.11,0.21683,0.53299,-0.13181,0.80713,573,0.886,0.054,-0.431,-0.061,0.0,0.0,172.782,-63.765,-8.278,-27.16,-11.887,10.293,32.05,-0.09131,-0.8428,0.09433,-0.52188,575
144,1.005,-0.13,-0.128,-0.305,0.122,0.0,-134.621,-79.695,-86.353,-25.313,-5.987,-3.573,30.37,0.18845,0.6857,-0.30438,0.63367,578,0.968,0.095,0.25,0.305,0.061,-0.549,20.956,-74.636,-148.376,-27.187,-13.633,8.047,28.42,0.31967,-0.534,-0.302,-0.72205,576,0.913,0.018,0.398,0.732,-0.305,-0.671,2.73,-66.577,148.057,-24.16,-11.72,-16.86,31.11,0.21683,0.53299,-0.13181,0.80713,580,0.886,0.053,-0.432,0.0,0.0,0.0,172.782,-63.765,-8.273,-27.16,-11.887,10.293,32.05,-0.09131,-0.8428,0.09433,-0.52188,582
145,1.005,-0.13,-0.125,-0.122,0.0,0.0,-134.621,-79.695,-86.353,-25.313,-5.987,-3.573,30.37,0.18845,0.6857,-0.30438,0.63367,579,0.967,0.095,0.247,1.282,-0.366,-0.183,21.0,-74.636,-148.392,-27.187,-13.633,8.047,28.42,0.31967,-0.534,-0.302,-0.72205,577,0.913,0.02,0.395,1.16,-0.366,-0.488,2.774,-66.583,148.024,-24.16,-11.72,-16.86,31.11,0.21683,0.53299,-0.13181,0.80713,581,0.884,0.055,-0.432,0.061,0.061,0.0,172.787,-63.765,-8.273,-27.16,-11.887,10.293,32.05,-0.09131,-0.8428,0.09433,-0.52188,583
146,1.004,-0.129,-0.125,0.0,0.0,0.0,-134.621,-79.695,-86.358,-25.313,-5.987,-3.573,30.37,0.18845,0.6857,-0.30438,0.63367,584,0.966,0.097,0.246,1.221,-0.427,0.0,21.044,-74.641,-148.392,-27.187,-13.633,8.047,28.42,0.31967,-0.534,-0.302,-0.72205,586,0.907,0.02,0.395,0.732,-0.122,-0.488,2.807,-66.583,147.969,-24.16,-11.72,-16.86,31.11,0.21683,0.53299,-0.13181,0.80713,588,0.885,0.056,-0.432,0.0,0.122,0.0,172.787,-63.765,-8.273,-27.16,-11.887,10.293,32.05,-0.09131,-0.8428,0.09433,-0.52188,590
147,1.005,-0.127,-0.127,0.0,0.0,0.0,-134.621,-79.695,-86.358,-25.313,-5.987,-3.573,30.37,0.18845,0.6857,-0.30438,0.63367,585,0.961,0.099,0.248,0.305,-0.183,-0.244,21.077,-74.647,-148.398,-27.187,-13.633,8.047,28.42,0.31967,-0.534,-0.302,-0.72205,587,0.908,0.021,0.395,-0.61,0.427,-0.793,2.834,-66.572,147.892,-24.16,-11.72,-16.86,31.11,0.21683,0.53299,-0.13181,0.80713,589,0.885,0.057,-0.431,0.0,0.061,0.0,172.782,-63.77,-8.273,-27.16,-11.887,10.293,32.05,-0.09131,-0.8428,0.09433,-0.52188,591
148,1.005,-0.128,-0.127,-0.061,0.061,0.0,-134.615,-79.695,-86.364,-25.313,-5.987,-3.573,30.37,0.18845,0.6857,-0.30438,0.63367,596,0.967,0.098,0.25,-0.427,0.061,-0.488,21.105,-74.647,-148.425,-27.187,-13.633,8.047,28.42,0.31967,-0.534,-0.302,-0.72205,594,0.913,0.019,0.396,-1.16,0.793,-1.16,2.856,-66.555,147.81,-24.16,-11.72,-16.86,31.11,0.21683,0.53299,-0.13181,0.80713,592,0.885,0.054,-0.433,0.0,0.061,0.0,172.782,-63.77,-8.273,-27.16,-11.887,10.293,32.05,-0.09131,-0.8428,0.09433,-0.52188,598
149,1.005,-0.13,-0.128,-0.183,0.061,0.0,-134.615,-79.7,-86.369,-25.313,-5.987,-3.573,30.37,0.18845,0.6857,-0.30438,0.63367,597,0.969,0.096,0.246,-0.488,0.305,-0.732,21.138,-74.636,-148.453,-27.187,-13.633,8.047,28.42,0.31967,-0.534,-0.302,-0.72205,595,0.912,0.021,0.396,-0.854,0.549,-1.038,2.889,-66.544,147.761,-24.16,-11.72,-16.86,31.11,0.21683,0.53299,-0.13181,0.80713,593,0.885,0.052,-0.434,-0.122,0.0,0.0,172.782,-63.77,-8.273,-27.16,-11.887,10.293,32.05,-0.09131,-0.8428,0.09433,-0.52188,599
150,1.006,-0.132,-0.13,-0.244,0.061,0.0,-134.61,-79.7,-86.375,-25.313,-5.987,-3.573,30.37,0.18845,0.6857,-0.30438,0.63367,606,0.967,0.095,0.247,-0.061,0.183,-0.305,21.16,-74.63,-148.469,-27.113,-13.807,9.153,28.42,0.31967,-0.534,-0.302,-0.72205,600,0.912,0.022,0.397,0.0,0.183,-0.061,2.889,-66.539,147.755,-24.16,-11.72,-16.86,31.11,0.21683,0.53299,-0.13181,0.80713,602,0.885,0.053,-0.434,-0.122,0.0,0.0,172.776,-63.77,-8.273,-27.16,-11.887,10.293,32.05,-0.09131,-0.8428,0.09433,-0.52188,604
151,1.005,-0.129,-0.128,0.0,-0.061,0.0,-134.615,-79.7,-86.375,-25.313,-5.987,-3.573,30.37,0.18845,0.6857,-0.30438,0.63367,607,0.967,0.094,0.248,0.305,0.0,0.183,21.165,-74.63,-148.464,-27.113,-13.807,9.153,28.42,0.31967,-0.534,-0.302,-0.72205,601,0.911,0.018,0.396,0.0,0.0,0.427,2.867,-66.539,147.777,-24.16,-11.72,-16.86,31.11,0.21683,0.53299,-0.13181,0.80713,603,0.885,0.054,-0.433,0.0,0.0,0.0,172.776,-63.77,-8.273,-27.16,-11.887,10.293,32.05,-0.09131,-0.8428,0.09433,-0.52188,605
152,1.005,-0.128,-0.127,0.122,-0.061,0.0,-134.621,-79.7,-86.369,-25.127,-5.267,-4.36,30.37,0.18845,0.6857,-0.30438,0.63367,608,0.967,0.096,0.247,0.244,0.0,0.183,21.16,-74.63,-148.442,-27.113,-13.807,9.153,28.42,0.31967,-0.534,-0.302,-0.72205,610,0.909,0.017,0.395,-0.061,0.0,0.0,2.867,-66.539,147.805,-24.16,-11.72,-16.86,31.11,0.21683,0.53299,-0.13181,0.80713,612,0.885,0.057,-0.433,0.0,0.0,0.0,172.776,-63.77,-8.267,-27.16,-11.887,10.293,32.05,-0.09131,-0.8428,0.09433,-0.52188,614
153,1.005,-0.128,-0.128,0.061,0.0,0.0,-134.621,-79.7,-86.369,-25.127,-5.267,-4.36,30.37,0.18845,0.6857,-0.30438,0.63367,609,0.965,0.098,0.246,-0.061,0.061,-0.122,21.16,-74.63,-148.442,-27.113,-13.807,9.153,28.42,0.31967,-0.534,-0.302,-0.72205,611,0.908,0.021,0.397,-0.427,0.061,-0.305,2.873,-66.533,147.821,-24.16,-11.72,-16.86,31.11,0.21683,0.53299,-0.13181,0.80713,613,0.885,0.057,-0.432,0.0,0.0,0.0,172.776,-63.77,-8.267,-27.16,-11.887,10.293,32.05,-0.09131,-0.8428,0.09433,-0.52188,615
154,1.005,-0.128,-0.127,-0.061,0.0,0.0,-134.621,-79.7,-86.369,-25.127,-5.267,-4.36,30.37,0.18845,0.6857,-0.30438,0.63367,618,0.965,0.101,0.249,-0.427,0.061,-0.366,21.171,-74.625,-148.458,-27.113,-13.807,9.153,28.42,0.3197,-0.53369,-0.30255,-0.72202,616,0.909,0.024,0.399,-0.671,0.0,-0.549,2.884,-66.533,147.805,-24.16,-11.72,-16.86,31.11,0.21683,0.53299,-0.13181,0.80713,620,0.886,0.057,-0.432,0.061,0.0,0.0,172.776,-63.77,-8.267,-27.287,-12.287,10.78,32.05,-0.09131,-0.8428,0.09433,-0.52188,622
155,1.004,-0.129,-0.128,-0.122,0.0,0.0,-134.626,-79.7,-86.369,-25.127,-5.267,-4.36,30.37,0.18845,0.6857,-0.30438,0.63367,619,0.966,0.1,0.249,-0.244,0.061,-0.427,21.193,-74.625,-148.491,-27.113,-13.807,9.153,28.42,0.3197,-0.53369,-0.30255,-0.72202,617,0.913,0.021,0.398,-0.061,-0.244,-0.488,2.906,-66.539,147.805,-24.16,-11.72,-16.86,31.11,0.21683,0.53299,-0.13181,0.80713,621,0.885,0.056,-0.431,0.061,-0.061,0.0,172.776,-63.77,-8.267,-27.287,-12.287,10.78,32.05,-0.09131,-0.8428,0.09433,-0.52188,623
156,1.005,-0.128,-0.127,-0.122,0.0,0.0,-134.632,-79.7,-86.369,-25.127,-5.267,-4.36,30.37,0.18872,0.68555,-0.30453,0.63367,624,0.968,0.098,0.247,0.305,-0.183,-0.305,21.226,-74.619,-148.53,-27.113,-13.807,9.153,28.42,0.3197,-0.53369,-0.30255,-0.72202,626,0.91,0.021,0.395,0.549,-0.549,-0.427,2.939,-66.544,147.81,-24.36,-11.76,-16.953,31.11,0.21683,0.53299,-0.13181,0.80713,628,0.885,0.055,-0.432,0.061,0.0,0.0,172.776,-63.77,-8.267,-27.287,-12.287,10.78,32.05,-0.09131,-0.84277,0.09427,-0.52191,632
157,1.005,-0.129,-0.126,0.0,-0.122,0.0,-134.637,-79.7,-86.369,-25.127,-5.267,-4.36,30.37,0.18872,0.68555,-0.30453,0.63367,625,0.965,0.098,0.246,0.61,-0.305,-0.244,21.264,-74.625,-148.563,-27.113,-13.807,9.153,28.42,0.3197,-0.53369,-0.30255,-0.72202,627,0.909,0.022,0.396,0.366,-0.488,-0.183,2.955,-66.555,147.821,-24.36,-11.76,-16.953,31.11,0.21683,0.53299,-0.13181,0.80713,629,0.885,0.055,-0.432,0.061,0.0,0.0,172.776,-63.77,-8.267,-27.287,-12.287,10.78,32.05,-0.09131,-0.84277,0.09427,-0.52191,633
158,1.006,-0.128,-0.127,0.0,-0.061,0.0,-134.643,-79.7,-86.364,-25.127,-5.267,-4.36,30.37,0.18872,0.68555,-0.30453,0.63367,634,0.966,0.098,0.248,0.305,-0.183,-0.122,21.297,-74.625,-148.596,-27.113,-13.807,9.153,28.42,0.3197,-0.53369,-0.30255,-0.72202,630,0.913,0.023,0.396,0.0,0.0,-0.244,2.972,-66.555,147.827,-24.36,-11.76,-16.953,31.11,0.21683,0.53299,-0.13181,0.80713,636,0.885,0.056,-0.432,0.0,0.061,0.0,172.776,-63.77,-8.267,-27.287,-12.287,10.78,32.05,-0.09131,-0.84277,0.09427,-0.52191,638
159,1.006,-0.129,-0.128,0.0,-0.061,0.0,-134.648,-79.7,-86.358,-25.127,-5.267,-4.36,30.37,0.18872,0.68555,-0.30453,0.63367,635,0.969,0.099,0.247,0.183,0.0,-0.061,21.313,-74.625,-148.618,-27.113,-13.807,9.153,28.42,0.3197,-0.53369,-0.30255,-0.72202,631,0.913,0.024,0.395,0.0,0.183,-0.061,2.972,-66.55,147.816,-24.36,-11.76,-16.953,31.11,0.21683,0.53299,-0.13181,0.80713,637,0.885,0.056,-0.433,0.122,0.122,0.0,172.776,-63.776,-8.267,-27.287,-12.287,10.78,32.05,-0.09131,-0.84277,0.09427,-0.52191,639
160,1.006,-0.13,-0.129,-0.061,0.0,0.0,-134.654,-79.7,-86.358,-25.127,-5.267,-4.36,30.37,0.18872,0.68555,-0.30453,0.63367,642,0.968,0.099,0.245,0.366,0.0,0.122,21.319,-74.625,-148.629,-27.113,-13.807,9.153,28.42,0.3197,-0.53369,-0.30255,-0.72202,640,0.911,0.023,0.395,0.061,0.0,0.183,2.972,-66.55,147.794,-24.36,-11.76,-16.953,31.11,0.21786,0.53299,-0.1311,0.80695,650,0.885,0.055,-0.434,0.122,0.061,0.0,172.776,-63.776,-8.267,-27.287,-12.287,10.78,32.05,-0.09131,-0.84277,0.09427,-0.52191,644
161,1.005,-0.13,-0.13,0.0,0.0,0.0,-134.654,-79.7,-86.358,-25.127,-5.267,-4.36,30.37,0.18872,0.68555,-0.30453,0.63367,643,0.966,0.099,0.246,0.427,0.0,0.244,21.319,-74.63,-148.629,-27.113,-13.807,9.153,28.42,0.3197,-0.53369,-0.30255,-0.72202,641,0.911,0.022,0.397,0.061,-0.061,0.427,2.955,-66.55,147.799,-24.36,-11.76,-16.953,31.11,0.21786,0.53299,-0.1311,0.80695,651,0.885,0.054,-0.435,0.183,0.061,0.0,172.782,-63.776,-8.267,-27.287,-12.287,10.78,32.05,-0.09131,-0.84277,0.09427,-0.52191,645
162,1.006,-0.129,-0.129,0.0,0.0,0.0,-134.659,-79.7,-86.358,-25.127,-5.267,-4.36,30.37,0.18872,0.68555,-0.30453,0.63367,648,0.967,0.099,0.248,0.183,0.061,0.366,21.308,-74.63,-148.612,-27.113,-13.807,9.153,28.42,0.3197,-0.53369,-0.30255,-0.72202,646,0.911,0.023,0.397,-0.122,-0.122,0.61,2.928,-66.55,147.821,-24.36,-11.76,-16.953,31.11,0.21786,0.53299,-0.1311,0.80695,654,0.885,0.055,-0.435,0.122,0.061,0.0,172.782,-63.776,-8.262,-27.287,-12.287,10.78,32.05,-0.09131,-0.84277,0.09427,-0.52191,652
163,1.005,-0.129,-0.128,0.0,0.0,0.0,-134.659,-79.7,-86.358,-25.127,-5.267,-4.36,30.37,0.18872,0.68555,-0.30453,0.63367,649,0.967,0.098,0.247,0.061,0.122,0.549,21.275,-74.63,-148.579,-27.113,-13.807,9.153,28.42,0.3197,-0.53369,-0.30255,-0.72202,647,0.912,0.021,0.396,-0.061,-0.122,0.61,2.9,-66.55,147.838,-24.36,-11.76,-16.953,31.11,0.21786,0.53299,-0.1311,0.80695,655,0.885,0.055,-0.433,0.122,0.122,0.0,172.782,-63.776,-8.262,-27.287,-12.287,10.78,32.05,-0.09131,-0.84277,0.09427,-0.52191,653
164,1.005,-0.129,-0.128,0.0,0.0,0.0,-134.659,-79.7,-86.358,-25.127,-5.267,-4.36,30.37,0.18872,0.68555,-0.30453,0.63367,662,0.967,0.098,0.247,0.061,0.122,0.549,21.242,-74.63,-148.552,-27.113,-13.807,9.153,28.42,0.3197,-0.53369,-0.30255,-0.72202,656,0.91,0.02,0.396,0.0,-0.122,0.671,2.873,-66.555,147.865,-24.36,-11.76,-16.953,31.11,0.21786,0.53299,-0.1311,0.80695,658,0.886,0.054,-0.433,0.122,0.183,0.0,172.782,-63.781,-8.262,-27.287,-12.287,10.78,32.05,-0.09131,-0.84277,0.09427,-0.52191,660
165,1.004,-0.129,-0.128,0.0,0.0,0.0,-134.665,-79.7,-86.358,-25.127,-5.267,-4.36,30.37,0.18872,0.68555,-0.30453,0.63367,663,0.966,0.097,0.246,0.0,0.122,0.549,21.209,-74.636,-148.53,-27.113,-13.807,9.153,28.42,0.3197,-0.53369,-0.30255,-0.72202,657,0.909,0.02,0.396,-0.061,0.0,0.61,2.851,-66.555,147.887,-24.36,-11.76,-16.953,31.11,0.21786,0.53299,-0.1311,0.80695,659,0.885,0.054,-0.432,0.061,0.061,0.0,172.787,-63.781,-8.262,-27.287,-12.287,10.78,32.05,-0.09131,-0.84277,0.09427,-0.52191,661
166,1.005,-0.129,-0.127,0.0,-0.061,0.0,-134.665,-79.7,-86.358,-25.127,-5.267,-4.36,30.37,0.18872,0.68555,-0.30453,0.63367,668,0.965,0.097,0.248,0.0,0.122,0.549,21.176,-74.636,-148.502,-27.113,-13.807,9.153,28.42,0.3197,-0.53369,-0.30255,-0.72202,664,0.91,0.018,0.396,-0.061,0.122,0.549,2.823,-66.55,147.925,-24.36,-11.76,-16.953,31.11,0.21786,0.53299,-0.1311,0.80695,666,0.886,0.055,-0.432,0.0,0.061,0.0,172.782,-63.781,-8.262,-27.287,-12.287,10.78,32.05,-0.09131,-0.84277,0.09427,-0.52191,672
167,1.005,-0.129,-0.127,0.0,0.0,0.0,-134.67,-79.7,-86.358,-25.127,-5.267,-4.36,30.37,0.18872,0.68555,-0.30453,0.63367,669,0.968,0.096,0.247,0.122,0.183,0.488,21.143,-74.636,-148.469,-27.113,-13.807,9.153,28.42,0.3197,-0.53369,-0.30255,-0.72202,665,0.912,0.018,0.397,-0.122,0.183,0.366,2.807,-66.544,147.953,-24.36,-11.76,-16.953,31.11,0.21786,0.53299,-0.1311,0.80695,667,0.885,0.055,-0.431,0.061,0.061,0.0,172.782,-63.781,-8.262,-27.287,-12.287,10.78,32.05,-0.09131,-0.84277,0.09427,-0.52191,673
168,1.005,-0.13,-0.126,0.0,-0.122,0.0,-134.676,-79.7,-86.353,-25.127,-5.267,-4.36,30.37,0.18872,0.68555,-0.30453,0.63367,678,0.966,0.097,0.247,0.244,0.061,0.366,21.127,-74.636,-148.453,-27.113,-13.713,7.633,28.42,0.3197,-0.53369,-0.30255,-0.72202,670,0.911,0.019,0.397,-0.183,0.0,0.183,2.796,-66.544,147.969,-24.36,-11.76,-16.953,31.11,0.21786,0.53299,-0.1311,0.80695,674,0.885,0.054,-0.431,0.183,0.0,0.0,172.787,-63.781,-8.256,-27.62,-12.44,9.247,32.05,-0.09131,-0.84277,0.09427,-0.52191,676
169,1.005,-0.13,-0.127,0.0,-0.061,0.0,-134.681,-79.7,-86.347,-25.127,-5.267,-4.36,30.37,0.18872,0.68555,-0.30453,0.63367,679,0.965,0.095,0.246,0.0,-0.061,0.305,21.11,-74.641,-148.447,-27.113,-13.713,7.633,28.42,0.3197,-0.53369,-0.30255,-0.72202,671,0.911,0.017,0.391,-0.183,0.305,0.183,2.785,-66.539,147.986,-24.36,-11.76,-16.953,31.11,0.21786,0.53299,-0.1311,0.80695,675,0.885,0.054,-0.434,0.061,0.244,0.0,172.787,-63.787,-8.256,-27.62,-12.44,9.247,32.05,-0.09131,-0.84277,0.09427,-0.52191,677
170,1.006,-0.13,-0.129,0.0,-0.061,0.0,-134.687,-79.7,-86.342,-25.313,-5.96,-4.2,30.37,0.18872,0.68555,-0.30453,0.63367,682,0.968,0.094,0.245,0.549,0.122,0.427,21.094,-74.641,-148.425,-27.113,-13.713,7.633,28.42,0.3197,-0.53369,-0.30255,-0.72202,680,0.914,0.017,0.395,0.366,0.305,0.305,2.774,-66.533,148.008,-24.36,-11.76,-16.953,31.11,0.21786,0.53299,-0.1311,0.80695,684,0.885,0.054,-0.433,0.122,0.061,0.0,172.787,-63.792,-8.256,-27.62,-12.44,9.247,32.05,-0.09131,-0.84277,0.09427,-0.52191,686
171,1.006,-0.13,-0.13,-0.061,0.061,0.0,-134.687,-79.7,-86.342,-25.313,-5.96,-4.2,30.37,0.18872,0.68555,-0.30453,0.63367,683,0.97,0.096,0.247,0.732,0.305,0.244,21.083,-74.641,-148.403,-27.113,-13.713,7.633,28.42,0.3197,-0.53369,-0.30255,-0.72202,681,0.912,0.021,0.398,0.122,0.305,0.061,2.774,-66.528,148.008,-24.36,-11.76,-16.953,31.11,0.21786,0.53299,-0.1311,0.80695,685,0.886,0.055,-0.432,0.0,-0.061,0.0,172.793,-63.792,-8.256,-27.62,-12.44,9.247,32.05,-0.09131,-0.84277,0.09427,-0.52191,687
172,1.005,-0.129,-0.128,-0.183,0.0,0.0,-134.681,-79.7,-86.347,-25.313,-5.96,-4.2,30.37,0.18872,0.68555,-0.30453,0.63367,688,0.966,0.098,0.247,0.183,0.244,0.183,21.072,-74.636,-148.387,-27.113,-13.713,7.633,28.42,0.31952,-0.53391,-0.30222,-0.72208,690,0.908,0.021,0.398,0.244,-0.244,0.427,2.763,-66.528,148.024,-24.36,-11.76,-16.953,31.11,0.21786,0.53299,-0.1311,0.80695,692,0.885,0.056,-0.431,0.0,-0.061,0.0,172.793,-63.792,-8.256,-27.62,-12.44,9.247,32.05,-0.09119,-0.84268,0.09412,-0.52213,694
173,1.003,-0.128,-0.128,0.0,0.0,0.0,-134.687,-79.7,-86.347,-25.313,-5.96,-4.2,30.37,0.18872,0.68555,-0.30453,0.63367,689,0.964,0.096,0.249,0.244,0.061,0.366,21.055,-74.636,-148.37,-27.113,-13.713,7.633,28.42,0.31952,-0.53391,-0.30222,-0.72208,691,0.906,0.018,0.4,0.244,-0.977,0.854,2.73,-66.55,148.079,-24.36,-11.76,-16.953,31.11,0.21786,0.53299,-0.1311,0.80695,693,0.885,0.055,-0.431,0.0,-0.122,0.0,172.793,-63.792,-8.256,-27.62,-12.44,9.247,32.05,-0.09119,-0.84268,0.09412,-0.52213,695
174,1.005,-0.129,-0.127,0.0,0.0,0.0,-134.687,-79.7,-86.347,-25.313,-5.96,-4.2,30.37,0.18893,0.68552,-0.30472,0.63354,698,0.962,0.098,0.251,0.0,0.0,0.244,21.044,-74.641,-148.359,-27.113,-13.713,7.633,28.42,0.31952,-0.53391,-0.30222,-0.72208,696,0.908,0.019,0.397,-0.061,-0.732,0.061,2.714,-66.566,148.107,-24.453,-11.633,-17.1,31.11,0.21786,0.53299,-0.1311,0.80695,700,0.886,0.055,-0.431,0.0,-0.122,0.0,172.793,-63.787,-8.256,-27.62,-12.44,9.247,32.05,-0.09119,-0.84268,0.09412,-0.52213,704
175,1.005,-0.129,-0.127,-0.061,0.0,0.0,-134.687,-79.7,-86.347,-25.313,-5.96,-4.2,30.37,0.18893,0.68552,-0.30472,0.63354,699,0.963,0.096,0.25,-0.244,0.0,0.061,21.033,-74.641,-148.354,-27.113,-13.713,7.633,28.42,0.31952,-0.53391,-0.30222,-0.72208,697,0.911,0.018,0.396,0.122,-0.549,0.122,2.714,-66.577,148.134,-24.453,-11.633,-17.1,31.11,0.21786,0.53299,-0.1311,0.80695,701,0.885,0.054,-0.431,0.061,-0.122,0.0,172.793,-63.787,-8.256,-27.62,-12.44,9.247,32.05,-0.09119,-0.84268,0.09412,-0.52213,705
176,1.005,-0.129,-0.127,-0.061,-0.061,0.0,-134.692,-79.7,-86.347,-25.313,-5.96,-4.2,30.37,0.18893,0.68552,-0.30472,0.63354,706,0.965,0.096,0.249,0.0,-0.061,0.061,21.033,-74.641,-148.348,-27.113,-13.713,7.633,28.42,0.31952,-0.53391,-0.30222,-0.72208,702,0.912,0.018,0.395,-0.122,-0.122,0.0,2.714,-66.583,148.189,-24.453,-11.633,-17.1,31.11,0.21786,0.53299,-0.1311,0.80695,708,0.885,0.054,-0.431,0.122,-0.122,0.0,172.793,-63.787,-8.256,-27.62,-12.44,9.247,32.05,-0.09119,-0.84268,0.09412,-0.52213,712
177,1.005,-0.129,-0.128,-0.061,-0.122,0.0,-134.698,-79.7,-86.342,-25.313,-5.96,-4.2,30.37,0.18893,0.68552,-0.30472,0.63354,707,0.967,0.095,0.249,0.244,0.0,0.183,21.033,-74.641,-148.337,-27.113,-13.713,7.633,28.42,0.31952,-0.53391,-0.30222,-0.72208,703,0.914,0.019,0.395,-0.061,-0.061,0.0,2.708,-66.583,148.217,-24.453,-11.633,-17.1,31.11,0.21786,0.53299,-0.1311,0.80695,709,0.886,0.055,-0.433,0.122,-0.122,0.0,172.798,-63.781,-8.256,-27.62,-12.44,9.247,32.05,-0.09119,-0.84268,0.09412,-0.52213,713
178,1.006,-0.129,-0.128,0.0,-0.061,0.0,-134.703,-79.7,-86.336,-25.313,-5.96,-4.2,30.37,0.18893,0.68552,-0.30472,0.63354,714,0.968,0.096,0.247,0.122,0.0,0.183,21.022,-74.641,-148.332,-27.113,-13.713,7.633,28.42,0.31952,-0.53391,-0.30222,-0.72208,710,0.914,0.019,0.394,0.0,-0.183,0.183,2.708,-66.583,148.222,-24.453,-11.633,-17.1,31.11,0.21634,0.53317,-0.13126,0.80719,720,0.886,0.054,-0.432,0.061,-0.061,0.0,172.798,-63.781,-8.256,-27.62,-12.44,9.247,32.05,-0.09119,-0.84268,0.09412,-0.52213,716
179,1.005,-0.13,-0.127,0.0,-0.122,0.0,-134.709,-79.695,-86.331,-25.313,-5.96,-4.2,30.37,0.18893,0.68552,-0.30472,0.63354,715,0.969,0.096,0.246,0.244,-0.061,0.122,21.022,-74.641,-148.332,-27.113,-13.713,7.633,28.42,0.31952,-0.53391,-0.30222,-0.72208,711,0.912,0.017,0.394,0.0,-0.366,0.183,2.697,-66.588,148.217,-24.453,-11.633,-17.1,31.11,0.21634,0.53317,-0.13126,0.80719,721,0.885,0.054,-0.434,0.061,0.0,0.0,172.798,-63.781,-8.256,-27.62,-12.44,9.247,32.05,-0.09119,-0.84268,0.09412,-0.52213,717
180,1.005,-0.13,-0.128,-0.061,-0.061,0.0,-134.72,-79.695,-86.32,-25.313,-5.96,-4.2,30.37,0.18893,0.68552,-0.30472,0.63354,722,0.968,0.095,0.246,0.183,-0.061,0.122,21.022,-74.641,-148.326,-27.113,-13.713,7.633,28.42,0.31952,-0.53391,-0.30222,-0.72208,718,0.912,0.018,0.395,0.0,-0.427,0.122,2.692,-66.594,148.217,-24.453,-11.633,-17.1,31.11,0.21634,0.53317,-0.13126,0.80719,726,0.885,0.054,-0.434,0.0,0.0,0.0,172.798,-63.781,-8.256,-27.62,-12.44,9.247,32.05,-0.09119,-0.84268,0.09412,-0.52213,724
181,1.005,-0.13,-0.129,-0.061,0.0,0.0,-134.72,-79.695,-86.32,-25.313,-5.96,-4.2,30.37,0.18893,0.68552,-0.30472,0.63354,723,0.967,0.095,0.245,0.122,-0.061,0.061,21.022,-74.647,-148.304,-27.113,-13.713,7.633,28.42,0.31952,-0.53391,-0.30222,-0.72208,719,0.909,0.018,0.397,-0.183,-0.427,0.122,2.686,-66.599,148.206,-24.453,-11.633,-17.1,31.11,0.21634,0.53317,-0.13126,0.80719,727,0.885,0.054,-0.433,-0.061,0.0,0.0,172.798,-63.781,-8.256,-27.62,-12.44,9.247,32.05,-0.09119,-0.84268,0.09412,-0.52213,725
182,1.005,-0.129,-0.129,0.0,0.061,0.0,-134.72,-79.695,-86.32,-25.313,-5.96,-4.2,30.37,0.18893,0.68552,-0.30472,0.63354,730,0.967,0.096,0.247,0.061,-0.061,0.061,21.022,-74.647,-148.277,-27.113,-13.713,7.633,28.42,0.31952,-0.53391,-0.30222,-0.72208,728,0.91,0.018,0.392,-0.244,0.0,0.0,2.681,-66.605,148.195,-24.453,-11.633,-17.1,31.11,0.21634,0.53317,-0.13126,0.80719,732,0.885,0.055,-0.433,0.0,0.0,0.0,172.798,-63.781,-8.256,-27.62,-12.44,9.247,32.05,-0.09119,-0.84268,0.09412,-0.52213,734
183,1.005,-0.129,-0.128,0.0,0.0,0.0,-134.72,-79.695,-86.325,-25.313,-5.96,-4.2,30.37,0.18893,0.68552,-0.30472,0.63354,731,0.965,0.097,0.246,-0.061,-0.244,0.061,21.028,-74.652,-148.266,-27.113,-13.713,7.633,28.42,0.31952,-0.53391,-0.30222,-0.72208,729,0.913,0.017,0.394,-0.366,0.244,-0.244,2.675,-66.605,148.178,-24.453,-11.633,-17.1,31.11,0.21634,0.53317,-0.13126,0.80719,733,0.885,0.055,-0.433,0.061,0.061,0.0,172.798,-63.781,-8.256,-27.62,-12.44,9.247,32.05,-0.09119,-0.84268,0.09412,-0.52213,735
184,1.005,-0.129,-0.129,0.0,0.0,0.0,-134.72,-79.695,-86.325,-25.313,-5.96,-4.2,30.37,0.18893,0.68552,-0.30472,0.63354,736,0.967,0.096,0.246,0.061,-0.061,0.061,21.028,-74.652,-148.266,-27.113,-13.713,7.633,28.42,0.31952,-0.53391,-0.30222,-0.72208,738,0.911,0.02,0.396,-0.061,0.183,-0.305,2.681,-66.599,148.156,-24.453,-11.633,-17.1,31.11,0.21634,0.53317,-0.13126,0.80719,740,0.886,0.054,-0.434,0.061,0.0,0.0,172.798,-63.781,-8.256,-27.187,-11.84,10.18,32.05,-0.09119,-0.84268,0.09412,-0.52213,744
185,1.005,-0.13,-0.129,0.0,0.0,0.0,-134.72,-79.695,-86.325,-25.313,-5.96,-4.2,30.37,0.18893,0.68552,-0.30472,0.63354,737,0.968,0.096,0.246,0.061,0.061,-0.061,21.033,-74.652,-148.277,-27.113,-13.713,7.633,28.42,0.31952,-0.53391,-0.30222,-0.72208,739,0.915,0.021,0.396,0.0,0.061,0.061,2.692,-66.594,148.151,-24.453,-11.633,-17.1,31.11,0.21634,0.53317,-0.13126,0.80719,741,0.885,0.055,-0.433,0.061,0.0,0.0,172.798,-63.781,-8.256,-27.187,-11.84,10.18,32.05,-0.09119,-0.84268,0.09412,-0.52213,745
186,1.006,-0.129,-0.129,-0.061,0.0,0.0,-134.72,-79.695,-86.325,-25.313,-5.96,-4.2,30.37,0.18893,0.68552,-0.30472,0.63354,746,0.966,0.097,0.247,0.183,0.0,0.0,21.044,-74.652,-148.293,-27.027,-13.82,7.84,28.42,0.31952,-0.53391,-0.30222,-0.72208,742,0.911,0.019,0.394,0.183,-0.366,0.122,2.686,-66.594,148.156,-24.453,-11.633,-17.1,31.11,0.21634,0.53317,-0.13126,0.80719,748,0.886,0.055,-0.433,0.061,0.0,0.0,172.804,-63.781,-8.256,-27.187,-11.84,10.18,32.05,-0.09109,-0.84274,0.09406,-0.52203,752
187,1.005,-0.129,-0.128,0.0,0.0,0.0,-134.72,-79.695,-86.325,-25.313,-5.96,-4.2,30.37,0.18893,0.68552,-0.30472,0.63354,747,0.97,0.097,0.247,0.244,0.0,0.183,21.044,-74.652,-148.293,-27.027,-13.82,7.84,28.42,0.31952,-0.53391,-0.30222,-0.72208,743,0.911,0.019,0.396,0.0,-0.427,0.061,2.686,-66.599,148.145,-24.453,-11.633,-17.1,31.11,0.21634,0.53317,-0.13126,0.80719,749,0.885,0.055,-0.432,0.061,0.061,0.0,172.804,-63.781,-8.256,-27.187,-11.84,10.18,32.05,-0.09109,-0.84274,0.09406,-0.52203,753
188,1.005,-0.129,-0.127,0.0,0.0,0.0,-134.72,-79.695,-86.325,-25.32,-5.807,-4.547,30.37,0.18893,0.68552,-0.30472,0.63354,756,0.966,0.097,0.245,0.305,0.0,0.061,21.044,-74.652,-148.304,-27.027,-13.82,7.84,28.42,0.31952,-0.53391,-0.30222,-0.72208,750,0.91,0.018,0.393,-0.061,-0.427,0.0,2.686,-66.61,148.162,-24.453,-11.633,-17.1,31.11,0.21634,0.53317,-0.13126,0.80719,758,0.885,0.055,-0.431,0.061,0.061,0.0,172.804,-63.781,-8.251,-27.187,-11.84,10.18,32.05,-0.09109,-0.84274,0.09406,-0.52203,754
189,1.005,-0.129,-0.127,0.0,0.0,0.0,-134.725,-79.695,-86.325,-25.32,-5.807,-4.547,30.37,0.18893,0.68552,-0.30472,0.63354,757,0.966,0.097,0.247,0.122,-0.122,0.061,21.05,-74.658,-148.315,-27.027,-13.82,7.84,28.42,0.31952,-0.53391,-0.30222,-0.72208,751,0.911,0.017,0.394,0.0,-0.366,-0.305,2.692,-66.616,148.156,-24.453,-11.633,-17.1,31.11,0.21634,0.53317,-0.13126,0.80719,759,0.885,0.054,-0.432,0.061,0.061,0.0,172.804,-63.781,-8.251,-27.187,-11.84,10.18,32.05,-0.09109,-0.84274,0.09406,-0.52203,755
190,1.005,-0.129,-0.127,0.0,0.0,0.0,-134.725,-79.7,-86.325,-25.32,-5.807,-4.547,30.37,0.18906,0.68552,-0.30481,0.63348,762,0.966,0.097,0.246,0.0,0.061,-0.061,21.055,-74.658,-148.326,-27.027,-13.82,7.84,28.42,0.31998,-0.53384,-0.30249,-0.7218,760,0.912,0.02,0.396,0.0,-0.122,-0.488,2.708,-66.621,148.145,-24.567,-11.3,-17.08,31.11,0.21634,0.53317,-0.13126,0.80719,764,0.885,0.055,-0.432,0.122,0.061,0.0,172.804,-63.787,-8.251,-27.187,-11.84,10.18,32.05,-0.09109,-0.84274,0.09406,-0.52203,766
191,1.005,-0.129,-0.128,0.0,0.0,0.0,-134.725,-79.7,-86.331,-25.32,-5.807,-4.547,30.37,0.18906,0.68552,-0.30481,0.63348,763,0.967,0.096,0.248,0.122,0.061,-0.183,21.072,-74.658,-148.343,-27.027,-13.82,7.84,28.42,0.31998,-0.53384,-0.30249,-0.7218,761,0.912,0.021,0.396,0.122,-0.061,-0.244,2.73,-66.621,148.129,-24.567,-11.3,-17.08,31.11,0.21634,0.53317,-0.13126,0.80719,765,0.885,0.054,-0.432,0.122,0.0,0.0,172.804,-63.787,-8.251,-27.187,-11.84,10.18,32.05,-0.09109,-0.84274,0.09406,-0.52203,767
192,1.005,-0.13,-0.128,0.0,0.0,0.0,-134.725,-79.7,-86.331,-25.32,-5.807,-4.547,30.37,0.18906,0.68552,-0.30481,0.63348,772,0.968,0.097,0.247,0.305,0.0,-0.122,21.088,-74.652,-148.365,-27.027,-13.82,7.84,28.42,0.31998,-0.53384,-0.30249,-0.7218,768,0.913,0.021,0.394,0.0,0.0,0.0,2.741,-66.621,148.14,-24.567,-11.3,-17.08,31.11,0.21634,0.53317,-0.13126,0.80719,774,0.885,0.054,-0.432,0.0,0.0,0.0,172.804,-63.787,-8.251,-27.187,-11.84,10.18,32.05,-0.09109,-0.84274,0.09406,-0.52203,776
193,1.005,-0.129,-0.128,0.0,-0.061,0.0,-134.725,-79.7,-86.325,-25.32,-5.807,-4.547,30.37,0.18906,0.68552,-0.30481,0.63348,773,0.967,0.098,0.247,0.305,0.0,0.0,21.099,-74.652,-148.387,-27.027,-13.82,7.84,28.42,0.31998,-0.53384,-0.30249,-0.7218,769,0.911,0.021,0.395,-0.061,0.061,0.244,2.736,-66.621,148.156,-24.567,-11.3,-17.08,31.11,0.21634,0.53317,-0.13126,0.80719,775,0.885,0.055,-0.433,0.0,0.0,0.0,172.804,-63.787,-8.251,-27.187,-11.84,10.18,32.05,-0.09109,-0.84274,0.09406,-0.52203,777
194,1.005,-0.13,-0.128,0.0,0.0,0.0,-134.731,-79.7,-86.325,-25.32,-5.807,-4.547,30.37,0.18906,0.68552,-0.30481,0.63348,778,0.968,0.097,0.246,0.244,0.0,0.244,21.094,-74.658,-148.376,-27.027,-13.82,7.84,28.42,0.31998,-0.53384,-0.30249,-0.7218,770,0.909,0.022,0.396,-0.244,0.0,0.305,2.725,-66.621,148.156,-24.567,-11.3,-17.08,31.11,0.21655,0.53342,-0.13141,0.80698,780,0.886,0.055,-0.432,0.0,0.0,0.0,172.804,-63.787,-8.251,-27.187,-11.84,10.18,32.05,-0.09109,-0.84274,0.09406,-0.52203,784
195,1.005,-0.129,-0.128,-0.061,0.0,0.0,-134.731,-79.7,-86.325,-25.32,-5.807,-4.547,30.37,0.18906,0.68552,-0.30481,0.63348,779,0.966,0.098,0.246,0.061,0.122,0.305,21.072,-74.658,-148.365,-27.027,-13.82,7.84,28.42,0.31998,-0.53384,-0.30249,-0.7218,771,0.909,0.02,0.396,-0.488,0.0,0.427,2.703,-66.621,148.156,-24.567,-11.3,-17.08,31.11,0.21655,0.53342,-0.13141,0.80698,781,0.885,0.055,-0.432,0.0,0.0,0.0,172.804,-63.787,-8.251,-27.187,-11.84,10.18,32.05,-0.09109,-0.84274,0.09406,-0.52203,785
196,1.005,-0.129,-0.127,-0.061,0.0,0.0,-134.731,-79.7,-86.325,-25.32,-5.807,-4.547,30.37,0.18906,0.68552,-0.30481,0.63348,790,0.965,0.099,0.248,-0.061,0.061,0.427,21.05,-74.658,-148.348,-27.027,-13.82,7.84,28.42,0.31998,-0.53384,-0.30249,-0.7218,782,0.911,0.018,0.396,-0.549,0.122,0.549,2.675,-66.616,148.178,-24.567,-11.3,-17.08,31.11,0.21655,0.53342,-0.13141,0.80698,786,0.886,0.054,-0.432,0.061,0.0,0.0,172.804,-63.787,-8.251,-27.187,-11.84,10.18,32.05,-0.09109,-0.84274,0.09406,-0.52203,788
197,1.005,-0.13,-0.127,0.0,0.0,0.0,-134.731,-79.7,-86.325,-25.32,-5.807,-4.547,30.37,0.18906,0.68552,-0.30481,0.63348,791,0.965,0.096,0.248,-0.183,0.122,0.488,21.011,-74.658,-148.321,-27.027,-13.82,7.84,28.42,0.31998,-0.53384,-0.30249,-0.7218,783,0.912,0.021,0.396,-0.671,0.305,0.671,2.642,-66.616,148.217,-24.567,-11.3,-17.08,31.11,0.21655,0.53342,-0.13141,0.80698,787,0.885,0.054,-0.432,0.122,0.0,0.0,172.804,-63.787,-8.251,-27.187,-11.84,10.18,32.05,-0.09109,-0.84274,0.09406,-0.52203,789
198,1.005,-0.129,-0.128,0.0,0.0,0.0,-134.731,-79.7,-86.325,-25.32,-5.807,-4.547,30.37,0.18906,0.68552,-0.30481,0.63348,794,0.966,0.096,0.248,0.0,0.061,0.732,20.967,-74.663,-148.277,-27.027,-13.82,7.84,28.42,0.31998,-0.53384,-0.30249,-0.7218,792,0.912,0.019,0.394,-0.427,0.305,0.977,2.598,-66.605,148.288,-24.567,-11.3,-17.08,31.11,0.21655,0.53342,-0.13141,0.80698,796,0.885,0.055,-0.432,0.183,0.0,0.0,172.809,-63.787,-8.251,-27.187,-11.84,10.18,32.05,-0.09109,-0.84274,0.09406,-0.52203,798
199,1.005,-0.129,-0.128,-0.061,0.0,0.0,-134.731,-79.7,-86.331,-25.32,-5.807,-4.547,30.37,0.18906,0.68552,-0.30481,0.63348,795,0.967,0.097,0.248,0.061,0.0,0.916,20.912,-74.669,-148.217,-27.027,-13.82,7.84,28.42,0.31998,-0.53384,-0.30249,-0.7218,793,0.91,0.017,0.392,-0.427,0.305,0.916,2.543,-66.599,148.381,-24.567,-11.3,-17.08,31.11,0.21655,0.53342,-0.13141,0.80698,797,0.885,0.056,-0.432,0.061,0.0,0.0,172.809,-63.787,-8.251,-27.187,-11.84,10.18,32.05,-0.09109,-0.84274,0.09406,-0.52203,799
200,1.005,-0.129,-0.127,0.0,0.0,0.0,-134.731,-79.7,-86.331,-25.32,-5.807,-4.547,30.37,0.18906,0.68552,-0.30481,0.63348,802,0.966,0.096,0.246,0.0,0.061,1.038,20.847,-74.674,-148.151,-27.027,-13.82,7.84,28.42,0.31998,-0.53384,-0.30249,-0.7218,800,0.91,0.016,0.396,-0.549,0.305,0.671,2.499,-66.594,148.464,-24.567,-11.3,-17.08,31.11,0.21655,0.53342,-0.13141,0.80698,804,0.886,0.056,-0.433,0.122,0.061,0.0,172.809,-63.787,-8.251,-27.02,-11.96,10.167,32.05,-0.09109,-0.84274,0.09406,-0.52203,806
201,1.006,-0.128,-0.128,0.0,0.0,0.0,-134.731,-79.7,-86.331,-25.32,-5.807,-4.547,30.37,0.18906,0.68552,-0.30481,0.63348,803,0.965,0.096,0.245,-0.122,0.305,0.854,20.786,-74.674,-148.09,-27.027,-13.82,7.84,28.42,0.31998,-0.53384,-0.30249,-0.7218,801,0.914,0.017,0.395,-0.549,0.366,0.488,2.461,-66.588,148.535,-24.567,-11.3,-17.08,31.11,0.21655,0.53342,-0.13141,0.80698,805,0.885,0.055,-0.433,0.0,0.0,0.0,172.809,-63.787,-8.251,-27.02,-11.96,10.167,32.05,-0.09109,-0.84274,0.09406,-0.52203,807
202,1.005,-0.129,-0.129,0.0,0.0,0.0,-134.731,-79.7,-86.331,-25.32,-5.807,-4.547,30.37,0.18906,0.68552,-0.30481,0.63348,814,0.967,0.095,0.247,-0.305,0.427,0.671,20.726,-74.669,-148.035,-26.867,-13.713,8.913,28.42,0.31998,-0.53384,-0.30249,-0.7218,808,0.913,0.015,0.392,0.122,0.305,0.549,2.433,-66.583,148.601,-24.567,-11.3,-17.08,31.11,0.21655,0.53342,-0.13141,0.80698,810,0.886,0.055,-0.433,0.0,0.0,0.0,172.809,-63.787,-8.251,-27.02,-11.96,10.167,32.05,-0.091,-0.84274,0.09396,-0.52209,812
203,1.006,-0.129,-0.129,0.0,0.0,0.0,-134.731,-79.7,-86.331,-25.32,-5.807,-4.547,30.37,0.18906,0.68552,-0.30481,0.63348,815,0.968,0.095,0.246,-0.122,0.366,0.488,20.687,-74.669,-148.002,-26.867,-13.713,8.913,28.42,0.31998,-0.53384,-0.30249,-0.7218,809,0.911,0.01,0.395,0.916,-0.305,0.183,2.422,-66.577,148.661,-24.567,-11.3,-17.08,31.11,0.21655,0.53342,-0.13141,0.80698,811,0.885,0.054,-0.432,0.122,0.0,0.0,172.809,-63.787,-8.245,-27.02,-11.96,10.167,32.05,-0.091,-0.84274,0.09396,-0.52209,813
204,1.006,-0.13,-0.129,0.0,0.0,0.0,-134.736,-79.7,-86.331,-25.393,-5.753,-4.24,30.37,0.18906,0.68552,-0.30481,0.63348,820,0.969,0.093,0.244,0.427,0.427,0.366,20.671,-74.663,-147.969,-26.867,-13.713,8.913,28.42,0.31998,-0.53384,-0.30249,-0.7218,818,0.911,0.011,0.394,0.671,-0.183,-0.061,2.433,-66.583,148.705,-24.567,-11.3,-17.08,31.11,0.21655,0.53342,-0.13141,0.80698,816,0.885,0.053,-0.433,0.244,0.0,0.0,172.815,-63.787,-8.245,-27.02,-11.96,10.167,32.05,-0.091,-0.84274,0.09396,-0.52209,824
205,1.005,-0.131,-0.128,0.183,-0.061,0.0,-134.736,-79.7,-86.325,-25.393,-5.753,-4.24,30.37,0.18906,0.68552,-0.30481,0.63348,821,0.967,0.09,0.246,0.793,0.183,0.0,20.687,-74.658,-147.975,-26.867,-13.713,8.913,28.42,0.31998,-0.53384,-0.30249,-0.7218,819,0.911,0.014,0.392,0.854,0.122,-0.122,2.45,-66.583,148.738,-24.567,-11.3,-17.08,31.11,0.21655,0.53342,-0.13141,0.80698,817,0.886,0.053,-0.436,0.183,0.305,0.0,172.815,-63.787,-8.245,-27.02,-11.96,10.167,32.05,-0.091,-0.84274,0.09396,-0.52209,825
206,1.006,-0.131,-0.128,0.183,-0.122,0.0,-134.742,-79.7,-86.32,-25.393,-5.753,-4.24,30.37,0.18906,0.68552,-0.30481,0.63348,830,0.966,0.089,0.245,0.793,-0.183,-0.183,20.72,-74.663,-147.997,-26.867,-13.713,8.913,28.42,0.3204,-0.534,-0.30179,-0.7218,822,0.914,0.018,0.4,0.244,0.488,-0.549,2.466,-66.583,148.76,-24.567,-11.3,-17.08,31.11,0.21655,0.53342,-0.13141,0.80698,828,0.885,0.054,-0.432,0.122,0.244,0.0,172.82,-63.792,-8.245,-27.02,-11.96,10.167,32.05,-0.091,-0.84274,0.09396,-0.52209,826
207,1.006,-0.131,-0.13,0.0,-0.061,0.0,-134.747,-79.695,-86.314,-25.393,-5.753,-4.24,30.37,0.18906,0.68552,-0.30481,0.63348,831,0.967,0.093,0.247,1.16,0.0,-0.244,20.759,-74.663,-148.024,-26.867,-13.713,8.913,28.42,0.3204,-0.534,-0.30179,-0.7218,823,0.913,0.024,0.4,-0.366,0.427,-0.671,2.494,-66.572,148.771,-24.567,-11.3,-17.08,31.11,0.21655,0.53342,-0.13141,0.80698,829,0.886,0.054,-0.433,0.0,0.061,0.0,172.82,-63.798,-8.245,-27.02,-11.96,10.167,32.05,-0.091,-0.84274,0.09396,-0.52209,827
208,1.005,-0.13,-0.129,0.0,0.061,0.0,-134.747,-79.695,-86.314,-25.393,-5.753,-4.24,30.37,0.18909,0.68552,-0.30487,0.63345,832,0.97,0.098,0.25,0.549,0.061,-0.305,20.792,-74.658,-148.035,-26.867,-13.713,8.913,28.42,0.3204,-0.534,-0.30179,-0.7218,834,0.914,0.023,0.397,-0.732,0.244,0.0,2.505,-66.561,148.782,-23.907,-11.507,-16.713,31.11,0.21655,0.53342,-0.13141,0.80698,838,0.885,0.055,-0.432,0.0,0.0,0.0,172.82,-63.798,-8.245,-27.02,-11.96,10.167,32.05,-0.091,-0.84274,0.09396,-0.52209,836
209,1.004,-0.129,-0.128,-0.061,0.0,0.0,-134.742,-79.695,-86.32,-25.393,-5.753,-4.24,30.37,0.18909,0.68552,-0.30487,0.63345,833,0.968,0.1,0.249,-0.366,0.0,0.0,20.786,-74.658,-148.041,-26.867,-13.713,8.913,28.42,0.3204,-0.534,-0.30179,-0.7218,835,0.907,0.019,0.394,-0.488,-0.671,0.61,2.488,-66.561,148.826,-23.907,-11.507,-16.713,31.11,0.21655,0.53342,-0.13141,0.80698,839,0.885,0.055,-0.43,0.061,-0.061,0.0,172.82,-63.792,-8.245,-27.02,-11.96,10.167,32.05,-0.091,-0.84274,0.09396,-0.52209,837
210,1.003,-0.128,-0.127,0.0,-0.061,0.0,-134.747,-79.695,-86.314,-25.393,-5.753,-4.24,30.37,0.18909,0.68552,-0.30487,0.63345,842,0.968,0.097,0.247,-0.488,0.0,0.366,20.759,-74.663,-148.035,-26.867,-13.713,8.913,28.42,0.3204,-0.534,-0.30179,-0.7218,840,0.904,0.014,0.396,-0.183,-0.977,0.671,2.455,-66.577,148.892,-23.907,-11.507,-16.713,31.11,0.21655,0.53342,-0.13141,0.80698,844,0.885,0.054,-0.43,0.122,0.0,0.0,172.82,-63.792,-8.245,-27.02,-11.96,10.167,32.05,-0.091,-0.84274,0.09396,-0.52209,846
211,1.004,-0.129,-0.126,0.0,0.0,0.0,-134.747,-79.695,-86.314,-25.393,-5.753,-4.24,30.37,0.18909,0.68552,-0.30487,0.63345,843,0.962,0.095,0.246,-0.427,0.183,0.488,20.715,-74.663,-148.03,-26.867,-13.713,8.913,28.42,0.3204,-0.534,-0.30179,-0.7218,841,0.908,0.013,0.395,0.0,-0.854,0.061,2.428,-66.594,148.953,-23.907,-11.507,-16.713,31.11,0.21655,0.53342,-0.13141,0.80698,845,0.886,0.054,-0.431,0.183,0.061,0.0,172.826,-63.798,-8.245,-27.02,-11.96,10.167,32.05,-0.091,-0.84274,0.09396,-0.52209,847
212,1.005,-0.129,-0.125,-0.061,0.0,0.0,-134.747,-79.695,-86.314,-25.393,-5.753,-4.24,30.37,0.18909,0.68552,-0.30487,0.63345,848,0.961,0.092,0.25,-0.305,0.244,0.366,20.682,-74.658,-148.019,-26.867,-13.713,8.913,28.42,0.3204,-0.534,-0.30179,-0.7218,850,0.911,0.01,0.395,0.305,-0.122,-0.061,2.428,-66.605,148.986,-23.907,-11.507,-16.713,31.11,0.2124,0.53357,-0.12979,0.80823,852,0.885,0.054,-0.43,0.122,0.0,0.0,172.826,-63.798,-8.245,-27.02,-11.96,10.167,32.05,-0.091,-0.84274,0.09396,-0.52209,856
213,1.006,-0.129,-0.128,0.0,-0.122,0.0,-134.753,-79.695,-86.309,-25.393,-5.753,-4.24,30.37,0.18909,0.68552,-0.30487,0.63345,849,0.966,0.091,0.249,0.061,0.549,0.061,20.671,-74.652,-148.024,-26.867,-13.713,8.913,28.42,0.3204,-0.534,-0.30179,-0.7218,851,0.913,0.008,0.395,0.244,0.366,-0.732,2.444,-66.605,149.008,-23.907,-11.507,-16.713,31.11,0.2124,0.53357,-0.12979,0.80823,853,0.886,0.054,-0.434,0.0,0.0,0.0,172.826,-63.798,-8.245,-27.02,-11.96,10.167,32.05,-0.091,-0.84274,0.09396,-0.52209,857
214,1.006,-0.13,-0.128,0.061,-0.183,0.0,-134.764,-79.695,-86.298,-25.393,-5.753,-4.24,30.37,0.18909,0.68552,-0.30487,0.63345,858,0.967,0.09,0.247,0.366,0.427,-0.244,20.682,-74.641,-148.041,-26.867,-13.713,8.913,28.42,0.3204,-0.534,-0.30179,-0.7218,854,0.915,0.015,0.394,0.305,0.488,-1.099,2.483,-66.594,149.002,-23.907,-11.507,-16.713,31.11,0.2124,0.53357,-0.12979,0.80823,860,0.886,0.054,-0.432,0.0,0.0,0.0,172.826,-63.798,-8.24,-27.3,-11.707,9.953,32.05,-0.091,-0.84274,0.09396,-0.52209,864
215,1.005,-0.131,-0.129,0.061,-0.122,0.0,-134.769,-79.695,-86.287,-25.393,-5.753,-4.24,30.37,0.18909,0.68552,-0.30487,0.63345,859,0.969,0.091,0.248,0.488,0.183,-0.732,20.737,-74.63,-148.101,-26.867,-13.713,8.913,28.42,0.3204,-0.534,-0.30179,-0.7218,855,0.91,0.016,0.397,0.977,0.0,-0.916,2.532,-66.588,148.98,-23.907,-11.507,-16.713,31.11,0.2124,0.53357,-0.12979,0.80823,861,0.886,0.052,-0.436,0.061,0.122,0.0,172.826,-63.798,-8.24,-27.3,-11.707,9.953,32.05,-0.091,-0.84274,0.09396,-0.52209,865
216,1.006,-0.132,-0.129,0.0,-0.061,0.0,-134.775,-79.689,-86.281,-25.393,-5.753,-4.24,30.37,0.18909,0.68552,-0.30487,0.63345,866,0.969,0.093,0.245,0.793,-0.061,-0.854,20.814,-74.63,-148.167,-26.867,-13.713,8.913,28.42,0.3204,-0.534,-0.30179,-0.7218,862,0.911,0.02,0.4,0.916,-0.977,-0.488,2.587,-66.588,148.975,-23.907,-11.507,-16.713,31.11,0.2124,0.53357,-0.12979,0.80823,868,0.886,0.052,-0.433,0.0,0.122,0.0,172.826,-63.803,-8.24,-27.3,-11.707,9.953,32.05,-0.09082,-0.84268,0.09384,-0.52222,870
217,1.005,-0.131,-0.13,0.0,0.0,0.0,-134.769,-79.689,-86.281,-25.393,-5.753,-4.24,30.37,0.18909,0.68552,-0.30487,0.63345,867,0.966,0.093,0.248,1.16,-0.244,-0.793,20.891,-74.63,-148.233,-26.867,-13.713,8.913,28.42,0.3204,-0.534,-0.30179,-0.7218,863,0.909,0.022,0.397,0.488,-0.793,-0.305,2.62,-66.605,148.98,-23.907,-11.507,-16.713,31.11,0.2124,0.53357,-0.12979,0.80823,869,0.885,0.055,-0.432,0.0,0.061,0.0,172.831,-63.803,-8.24,-27.3,-11.707,9.953,32.05,-0.09082,-0.84268,0.09384,-0.52222,871
218,1.004,-0.129,-0.129,-0.061,0.061,0.0,-134.769,-79.689,-86.287,-25.393,-5.753,-4.24,30.37,0.18909,0.68552,-0.30487,0.63345,874,0.965,0.097,0.251,0.793,-0.549,-0.549,20.956,-74.636,-148.288,-26.867,-13.713,8.913,28.42,0.3204,-0.534,-0.30179,-0.7218,872,0.909,0.021,0.393,0.183,-0.427,-0.305,2.642,-66.616,148.997,-23.907,-11.507,-16.713,31.11,0.2124,0.53357,-0.12979,0.80823,876,0.885,0.056,-0.431,-0.061,0.061,0.0,172.826,-63.803,-8.24,-27.3,-11.707,9.953,32.05,-0.09082,-0.84268,0.09384,-0.52222,878
219,1.004,-0.128,-0.127,0.0,0.0,0.0,-134.764,-79.689,-86.287,-25.393,-5.753,-4.24,30.37,0.18909,0.68552,-0.30487,0.63345,875,0.963,0.1,0.249,0.427,-0.427,-0.244,20.995,-74.641,-148.31,-26.867,-13.713,8.913,28.42,0.3204,-0.534,-0.30179,-0.7218,873,0.91,0.02,0.392,-0.488,0.305,-0.916,2.659,-66.621,149.002,-23.907,-11.507,-16.713,31.11,0.2124,0.53357,-0.12979,0.80823,877,0.885,0.056,-0.431,-0.061,0.061,0.0,172.826,-63.803,-8.24,-27.3,-11.707,9.953,32.05,-0.09082,-0.84268,0.09384,-0.52222,879
220,1.005,-0.128,-0.127,0.122,0.0,0.0,-134.764,-79.689,-86.287,-25.393,-5.753,-4.24,30.37,0.18909,0.68552,-0.30487,0.63345,886,0.964,0.099,0.247,0.122,-0.244,-0.244,21.017,-74.641,-148.343,-26.867,-13.713,8.913,28.42,0.3204,-0.534,-0.30179,-0.7218,880,0.913,0.024,0.399,-1.282,0.916,-1.282,2.692,-66.61,148.98,-23.907,-11.507,-16.713,31.11,0.2124,0.53357,-0.12979,0.80823,882,0.885,0.055,-0.432,0.0,0.061,0.0,172.826,-63.803,-8.24,-27.3,-11.707,9.953,32.05,-0.09082,-0.84268,0.09384,-0.52222,884
221,1.006,-0.129,-0.127,0.0,0.0,0.0,-134.764,-79.689,-86.287,-25.393,-5.753,-4.24,30.37,0.18909,0.68552,-0.30487,0.63345,887,0.966,0.099,0.247,-0.366,0.244,-0.61,21.05,-74.636,-148.392,-26.867,-13.713,8.913,28.42,0.3204,-0.534,-0.30179,-0.7218,881,0.916,0.023,0.396,-0.854,1.099,-0.671,2.719,-66.588,148.931,-23.907,-11.507,-16.713,31.11,0.2124,0.53357,-0.12979,0.80823,883,0.886,0.055,-0.431,0.0,0.061,0.0,172.826,-63.809,-8.24,-27.3,-11.707,9.953,32.05,-0.09082,-0.84268,0.09384,-0.52222,885
222,1.005,-0.13,-0.128,-0.061,-0.061,0.0,-134.764,-79.689,-86.287,-25.353,-6.107,-4.527,30.37,0.18909,0.68552,-0.30487,0.63345,892,0.968,0.101,0.25,-0.854,0.366,-0.488,21.061,-74.625,-148.431,-27.047,-14.1,7.893,28.42,0.3204,-0.534,-0.30179,-0.7218,890,0.911,0.018,0.395,0.122,0.244,0.183,2.73,-66.566,148.909,-23.907,-11.507,-16.713,31.11,0.2124,0.53357,-0.12979,0.80823,888,0.886,0.054,-0.431,0.0,0.0,0.0,172.826,-63.809,-8.24,-27.3,-11.707,9.953,32.05,-0.09082,-0.84268,0.09384,-0.52222,894
223,1.004,-0.13,-0.129,-0.122,0.0,0.0,-134.769,-79.689,-86.281,-25.353,-6.107,-4.527,30.37,0.18909,0.68552,-0.30487,0.63345,893,0.965,0.097,0.247,-0.122,0.244,0.0,21.055,-74.619,-148.42,-27.047,-14.1,7.893,28.42,0.3204,-0.534,-0.30179,-0.7218,891,0.907,0.018,0.398,0.061,-0.122,0.549,2.719,-66.566,148.909,-23.907,-11.507,-16.713,31.11,0.2124,0.53357,-0.12979,0.80823,889,0.886,0.053,-0.433,0.0,0.0,0.0,172.82,-63.809,-8.24,-27.3,-11.707,9.953,32.05,-0.09082,-0.84268,0.09384,-0.52222,895
224,1.005,-0.13,-0.128,0.0,0.0,0.0,-134.769,-79.689,-86.287,-25.353,-6.107,-4.527,30.37,0.18909,0.68552,-0.30487,0.63345,898,0.963,0.096,0.25,0.122,-0.061,0.305,21.044,-74.619,-148.387,-27.047,-14.1,7.893,28.42,0.31952,-0.53381,-0.30209,-0.7222,896,0.91,0.02,0.4,-0.854,0.0,0.122,2.697,-66.566,148.909,-23.907,-11.507,-16.713,31.11,0.2124,0.53357,-0.12979,0.80823,900,0.886,0.055,-0.431,0.0,0.0,0.0,172.82,-63.809,-8.24,-27.3,-11.707,9.953,32.05,-0.09082,-0.84268,0.09384,-0.52222,902
225,1.005,-0.129,-0.127,0.061,0.0,0.0,-134.764,-79.689,-86.287,-25.353,-6.107,-4.527,30.37,0.18909,0.68552,-0.30487,0.63345,899,0.966,0.099,0.251,-0.488,-0.061,0.183,21.028,-74.625,-148.365,-27.047,-14.1,7.893,28.42,0.31952,-0.53381,-0.30209,-0.7222,897,0.914,0.021,0.397,-0.916,0.122,-0.244,2.681,-66.561,148.892,-23.907,-11.507,-16.713,31.11,0.2124,0.53357,-0.12979,0.80823,901,0.886,0.055,-0.431,0.0,0.0,0.0,172.82,-63.809,-8.24,-27.3,-11.707,9.953,32.05,-0.09082,-0.84268,0.09384,-0.52222,903
226,1.006,-0.129,-0.128,0.0,0.0,0.0,-134.764,-79.689,-86.287,-25.353,-6.107,-4.527,30.37,0.18903,0.68558,-0.30484,0.63342,904,0.969,0.099,0.247,-0.549,0.0,0.183,21.011,-74.625,-148.354,-27.047,-14.1,7.893,28.42,0.31952,-0.53381,-0.30209,-0.7222,906,0.912,0.019,0.392,-0.488,0.183,0.0,2.675,-66.561,148.865,-24.147,-11.1,-17.273,31.11,0.2124,0.53357,-0.12979,0.80823,908,0.885,0.055,-0.432,-0.061,0.0,0.0,172.82,-63.809,-8.234,-27.3,-11.707,9.953,32.05,-0.09082,-0.84268,0.09384,-0.52222,910
227,1.005,-0.129,-0.129,0.0,0.0,0.0,-134.764,-79.695,-86.287,-25.353,-6.107,-4.527,30.37,0.18903,0.68558,-0.30484,0.63342,905,0.967,0.096,0.244,-0.122,-0.061,0.305,20.995,-74.625,-148.343,-27.047,-14.1,7.893,28.42,0.31952,-0.53381,-0.30209,-0.7222,907,0.911,0.018,0.394,0.061,-0.061,0.366,2.664,-66.555,148.859,-24.147,-11.1,-17.273,31.11,0.2124,0.53357,-0.12979,0.80823,909,0.885,0.054,-0.433,0.061,-0.061,0.0,172.82,-63.809,-8.24,-27.3,-11.707,9.953,32.05,-0.09082,-0.84268,0.09384,-0.52222,911
228,1.004,-0.129,-0.128,0.0,0.061,0.0,-134.764,-79.695,-86.292,-25.353,-6.107,-4.527,30.37,0.18903,0.68558,-0.30484,0.63342,914,0.966,0.095,0.246,0.183,0.0,0.305,20.978,-74.63,-148.326,-27.047,-14.1,7.893,28.42,0.31952,-0.53381,-0.30209,-0.7222,912,0.91,0.016,0.392,0.305,0.0,0.183,2.653,-66.555,148.837,-24.147,-11.1,-17.273,31.11,0.2124,0.53357,-0.12979,0.80823,920,0.885,0.054,-0.431,0.061,-0.061,0.0,172.82,-63.809,-8.24,-27.3,-11.707,9.953,32.05,-0.09082,-0.84268,0.09384,-0.52222,916
229,1.005,-0.128,-0.128,0.0,0.0,0.0,-134.764,-79.695,-86.292,-25.353,-6.107,-4.527,30.37,0.18903,0.68558,-0.30484,0.63342,915,0.965,0.095,0.245,0.122,0.366,0.183,20.967,-74.63,-148.31,-27.047,-14.1,7.893,28.42,0.31952,-0.53381,-0.30209,-0.7222,913,0.912,0.021,0.396,0.0,0.305,0.0,2.653,-66.555,148.804,-24.147,-11.1,-17.273,31.11,0.2124,0.53357,-0.12979,0.80823,921,0.886,0.056,-0.432,0.122,0.0,0.0,172.826,-63.809,-8.24,-27.3,-11.707,9.953,32.05,-0.09082,-0.84268,0.09384,-0.52222,917
230,1.005,-0.128,-0.128,0.061,0.061,0.0,-134.758,-79.695,-86.298,-25.353,-6.107,-4.527,30.37,0.18903,0.68558,-0.30484,0.63342,922,0.968,0.098,0.248,0.061,0.488,0.122,20.956,-74.619,-148.293,-27.047,-14.1,7.893,28.42,0.31952,-0.53381,-0.30209,-0.7222,918,0.915,0.019,0.395,0.244,0.61,0.0,2.653,-66.544,148.771,-24.147,-11.1,-17.273,31.11,0.21246,0.53354,-0.12881,0.80841,924,0.886,0.057,-0.433,0.122,0.0,0.0,172.826,-63.809,-8.234,-27.56,-12.347,9.98,32.05,-0.09082,-0.84268,0.09384,-0.52222,926
231,1.005,-0.129,-0.129,0.061,0.122,0.0,-134.747,-79.695,-86.303,-25.353,-6.107,-4.527,30.37,0.18903,0.68558,-0.30484,0.63342,923,0.97,0.096,0.245,0.549,0.366,0.122,20.945,-74.614,-148.288,-27.047,-14.1,7.893,28.42,0.31952,-0.53381,-0.30209,-0.7222,919,0.91,0.02,0.396,0.549,0.183,0.183,2.659,-66.533,148.755,-24.147,-11.1,-17.273,31.11,0.21246,0.53354,-0.12881,0.80841,925,0.886,0.056,-0.432,0.0,0.0,0.0,172.826,-63.809,-8.234,-27.56,-12.347,9.98,32.05,-0.09082,-0.84268,0.09384,-0.52222,927
232,1.006,-0.129,-0.129,0.0,0.061,0.0,-134.747,-79.695,-86.309,-25.353,-6.107,-4.527,30.37,0.18903,0.68558,-0.30484,0.63342,930,0.966,0.097,0.246,0.671,0.122,0.061,20.945,-74.608,-148.288,-27.047,-14.1,7.893,28.42,0.31952,-0.53381,-0.30209,-0.7222,928,0.909,0.018,0.397,0.488,0.183,0.0,2.664,-66.533,148.738,-24.147,-11.1,-17.273,31.11,0.21246,0.53354,-0.12881,0.80841,934,0.886,0.054,-0.433,0.0,0.0,0.0,172.82,-63.809,-8.234,-27.56,-12.347,9.98,32.05,-0.09085,-0.84265,0.09384,-0.52225,936
233,1.005,-0.13,-0.129,0.0,0.122,0.0,-134.736,-79.7,-86.32,-25.353,-6.107,-4.527,30.37,0.18903,0.68558,-0.30484,0.63342,931,0.966,0.096,0.249,0.671,0.061,0.061,20.956,-74.608,-148.304,-27.047,-14.1,7.893,28.42,0.31952,-0.53381,-0.30209,-0.7222,929,0.912,0.02,0.398,0.0,0.488,-0.244,2.675,-66.528,148.722,-24.147,-11.1,-17.273,31.11,0.21246,0.53354,-0.12881,0.80841,935,0.886,0.053,-0.433,0.0,0.0,0.0,172.82,-63.809,-8.234,-27.56,-12.347,9.98,32.05,-0.09085,-0.84265,0.09384,-0.52225,937
234,1.006,-0.13,-0.129,0.0,0.122,0.0,-134.731,-79.7,-86.331,-25.353,-6.107,-4.527,30.37,0.18903,0.68558,-0.30484,0.63342,938,0.967,0.097,0.249,0.427,-0.061,0.183,20.967,-74.608,-148.315,-27.047,-14.1,7.893,28.42,0.31952,-0.53381,-0.30209,-0.7222,932,0.913,0.021,0.396,-0.305,1.282,0.0,2.681,-66.511,148.7,-24.147,-11.1,-17.273,31.11,0.21246,0.53354,-0.12881,0.80841,942,0.886,0.053,-0.433,0.061,0.0,0.0,172.82,-63.809,-8.234,-27.56,-12.347,9.98,32.05,-0.09085,-0.84265,0.09384,-0.52225,940
235,1.006,-0.131,-0.128,0.0,0.183,0.0,-134.72,-79.7,-86.342,-25.353,-6.107,-4.527,30.37,0.18903,0.68558,-0.30484,0.63342,939,0.968,0.097,0.247,0.122,0.061,0.366,20.967,-74.614,-148.315,-27.047,-14.1,7.893,28.42,0.31952,-0.53381,-0.30209,-0.7222,933,0.912,0.021,0.397,-0.549,1.099,0.122,2.67,-66.484,148.683,-24.147,-11.1,-17.273,31.11,0.21246,0.53354,-0.12881,0.80841,943,0.886,0.054,-0.432,0.061,0.061,0.0,172.826,-63.809,-8.234,-27.56,-12.347,9.98,32.05,-0.09085,-0.84265,0.09384,-0.52225,941
236,1.004,-0.13,-0.129,0.0,0.183,0.0,-134.703,-79.706,-86.358,-25.353,-6.107,-4.527,30.37,0.18903,0.68558,-0.30484,0.63342,950,0.968,0.097,0.247,-0.061,0.0,0.488,20.945,-74.614,-148.293,-27.047,-14.1,7.893,28.42,0.31952,-0.53381,-0.30209,-0.7222,944,0.911,0.021,0.396,-0.061,0.854,0.854,2.648,-66.467,148.672,-24.147,-11.1,-17.273,31.11,0.21246,0.53354,-0.12881,0.80841,948,0.885,0.053,-0.433,0.0,0.0,0.0,172.826,-63.809,-8.234,-27.56,-12.347,9.98,32.05,-0.09085,-0.84265,0.09384,-0.52225,946
237,1.005,-0.13,-0.129,-0.122,0.183,0.0,-134.692,-79.706,-86.375,-25.353,-6.107,-4.527,30.37,0.18903,0.68558,-0.30484,0.63342,951,0.967,0.096,0.246,0.244,0.305,0.916,20.907,-74.619,-148.255,-27.047,-14.1,7.893,28.42,0.31952,-0.53381,-0.30209,-0.7222,945,0.908,0.017,0.396,0.122,0.671,1.16,2.609,-66.451,148.7,-24.147,-11.1,-17.273,31.11,0.21246,0.53354,-0.12881,0.80841,949,0.885,0.053,-0.432,0.0,0.0,0.0,172.826,-63.809,-8.234,-27.56,-12.347,9.98,32.05,-0.09085,-0.84265,0.09384,-0.52225,947
238,1.004,-0.129,-0.128,-0.183,0.244,0.0,-134.681,-79.711,-86.391,-25.353,-6.107,-4.527,30.37,0.18903,0.68558,-0.30484,0.63342,952,0.965,0.094,0.247,0.244,0.549,0.977,20.847,-74.619,-148.2,-27.047,-14.1,7.893,28.42,0.31952,-0.53381,-0.30209,-0.7222,954,0.91,0.017,0.397,-0.427,0.793,0.732,2.56,-66.44,148.733,-24.147,-11.1,-17.273,31.11,0.21246,0.53354,-0.12881,0.80841,962,0.885,0.054,-0.432,0.0,0.0,0.0,172.826,-63.809,-8.234,-27.56,-12.347,9.98,32.05,-0.09085,-0.84265,0.09384,-0.52225,958
